scenario_id,mean_wind_speed,max_wind_speed,wind_velocity_x,wind_velocity_y,wind_velocity,wind_acceleration_x,wind_acceleration_y,wind_acceleration,wind_body_force_x,wind_body_force_y,wind_body_force,mean_wind_body_risk,mean_wind_gust_risk,mean_wind_risk_raw,min_thrust_margin_n,mean_abs_roll_deg,mean_abs_pitch_deg,mean_abs_vz,max_abs_vz,mean_tag_error,max_tag_error,stability_std_z,stability_std_vz,mean_imu_ang_vel,max_imu_ang_vel,mean_imu_lin_acc,max_imu_lin_acc,wind_speed_cmd,wind_dir_cmd,hover_height_cmd,gt_safe_to_land,label,success,onto_wind_condition,onto_gust,onto_temporal_pattern,onto_drone_state,onto_tag_observation
1,2.030203786837,2.7368483543396,-1.25094463655974,-1.58207952578409,2.030203786837,-0.0531991983837193,0.0147109320545895,0.0551957084435473,-0.0845558310522605,-0.13168538299566,0.160082660896138,0.0103241314082032,0.126721046821163,0.0452432060320911,15.4359986346798,0.98062811621133,1.01593370998815,0.175712847627651,0.240287317959894,0.144997608194303,0.378266810763649,0.156681283868468,0.0411707575251871,NaN,NaN,NaN,NaN,2.0716688985117,-127.374480982322,2.31472368639318,stable,stable,1,0.550436317696285,0.169114240902735,0.186075855260018,0.896456304694607,0.33555661858031
2,2.29577138989659,3,-1.38319001665051,-1.79521815579899,2.29577138989659,0.0136821879581357,0.00981853175918902,0.0168406007383334,-0.107734899434966,-0.174306383850375,0.213752257548874,0.0137919995003347,0.219198534494554,0.0754139599986006,15.4280352278722,1.9238667873157,1.97811251158293,0.0209204972080372,0.182356689765073,0.136403736572772,0.479005005931383,0.00217729017350956,0.00667193907857527,NaN,NaN,NaN,NaN,2.42882567996652,-126.095851442396,2.29562827713516,stable,stable,1,0.627288495972143,0.161538880741962,0.100317172631674,0.958881342618921,0.339376117078768
3,1.8105023390538,2.56787729263306,-1.11398567295298,-1.41231026083776,1.8105023390538,-0.0535574005197028,0.00735323263369911,0.054059829638958,-0.0671376108504158,-0.106692312577014,0.128940108885936,0.00831515415732858,0.121968388763238,0.0424111245391014,15.4608699923344,0.946895247646472,1.01979341394265,0.175767301717739,0.240216766013034,0.153497476536559,0.439727406787946,0.156764694478057,0.0392702872512225,NaN,NaN,NaN,NaN,1.87319628751653,-127.297520073929,2.0745852640142,stable,stable,1,0.4912828486555,0.180320333322475,0.192145501994278,0.896663795371502,0.331778899317085
4,2.36427628254265,3,-0.679890544770447,-2.23232112140441,2.36427628254265,-0.0177414014925171,0.00494241554838368,0.0184169703906911,-0.0337777538178485,-0.271239246567988,0.275153440490965,0.0177538554416841,0.233484453695396,0.0824730349177977,15.4372543897358,1.93948105362098,1.67782978846782,0.063790352657996,0.240295976094502,0.148406713511249,0.489479909448451,0.00195155524018668,0.0108390841036263,NaN,NaN,NaN,NaN,2.46779887999601,-105.553838771394,1.74151243189883,unstable,unstable,0,0.646968282328265,0.146414280999532,0.0926574116128377,0.939683095626019,0.334041460661667
5,1.83477111373629,2.68452954292297,-1.07299319215549,-1.45685037148507,1.83477111373629,-0.0661089471666209,0.0144646326582946,0.0676728785660731,-0.0659446578451986,-0.116941827709527,0.140188799030816,0.00903983802257607,0.185215377808506,0.0618924999583551,15.4919895465156,0.873321696349049,1.00276942078247,0.177527663529438,0.240260935754568,0.164047639544152,0.459099685331068,0.15679839978176,0.0423741211145681,NaN,NaN,NaN,NaN,1.88084050141636,-125.058018224367,2.12883710888231,stable,stable,1,0.501650796988015,0.203602340970784,0.207258353577641,0.896495452314962,0.327089937980377
6,1.88408877531687,2.65758037567139,-1.03684003925132,-1.5577236050051,1.88408877531687,0.00562248016227298,0.00453539619946939,0.00722371800815304,-0.0587451210894487,-0.127864368402024,0.143244519483227,0.00924074225105872,0.132238149505663,0.0461399644274401,15.4713070293762,1.72720211831599,1.70462566179218,0.0192501025201809,0.0480212289989941,0.119642313832753,0.467610123437602,0.000239276885772103,0.005307117372107,NaN,NaN,NaN,NaN,1.9161886291726,-122.783489357006,2.28030790056812,stable,stable,1,0.511651666303321,0.17535995838126,0.107252181173906,0.963410587610488,0.346825638296554
7,1.92013534072305,2.7634129524231,-1.07636662953703,-1.57548561649786,1.92013534072305,-0.0452515738910213,0.00680761742238926,0.0457607757209619,-0.0630195787207728,-0.131277200568423,0.148270829120903,0.00956249826469064,0.128081203376906,0.0451181097983554,15.4520013946459,1.10975476151701,1.16127817982962,0.177145055088105,0.240275111282121,0.145168005119106,0.501429350859262,0.159614137085921,0.0355420762657593,NaN,NaN,NaN,NaN,1.96867067391655,-123.586570068552,1.96126582882652,stable,stable,1,0.521059712819151,0.198126938181353,0.20274017076081,0.89358364220251,0.335480886613731
8,1.90678332533155,2.72303175926208,-1.11093307644437,-1.52793051667259,1.90678332533155,-0.0553594076589239,0.0183917070311356,0.0583345429729765,-0.0685940574124159,-0.124896350145084,0.146733333754549,0.0094617178134889,0.149754433142765,0.0515495324122718,15.4746338627987,0.825527369277628,0.862619249143578,0.176432671445089,0.2402632068221,0.149069280191623,0.451073557688899,0.159729172473515,0.0361425271766926,NaN,NaN,NaN,NaN,1.96461919299708,-125.030810267647,2.18454259822123,stable,stable,1,0.518785459904201,0.194350563846082,0.200743818784373,0.898519655132717,0.333746986581501
9,2.62075550278028,3,-0.822899421965477,-2.45469055963488,2.62075550278028,0.00589890372257021,0.0037199345211125,0.00697387825886838,-0.0441848489342514,-0.313952641602265,0.319327324953822,0.0206061199396954,0.19654609455968,0.0733881123256906,15.4458254268904,2.10849006368737,2.05936794032727,0.0167995195328967,0.0741320507516317,0.137909450037721,0.510829608246268,0.000189921087678794,0.00722357481758403,NaN,NaN,NaN,NaN,2.98365709536118,-106.900241715489,2.39534134446704,stable,stable,1,0.713545756539879,0.0866085562218965,0.0546762975845611,0.958852784487722,0.338706911094346
10,1.87405588513329,2.69627118110657,-1.13070794951444,-1.48044297604841,1.87405588513329,-0.0514551003173032,-0.000777703641174779,0.0514609771731672,-0.0691940093436508,-0.116437896828648,0.138169701808894,0.00890906909448861,0.1269450766466,0.0443198713601221,15.4997488405675,0.724283685071797,0.810139334880815,0.17598090721464,0.240241408755591,0.133254483581327,0.395301592165164,0.159470121595045,0.0351300756284031,NaN,NaN,NaN,NaN,1.92399487038037,-126.353098118705,1.84195425368833,stable,stable,1,0.508612210307568,0.194432954075735,0.200309954999022,0.899953365521624,0.340775785074966
11,1.89385059333983,2.52116894721985,-1.17610060430793,-1.46817777604217,1.89385059333983,-0.0399683025881862,0.0121985215719201,0.0417883852322797,-0.0745357281279009,-0.114265365237682,0.139679106011387,0.00900693067412042,0.137012012343817,0.0474084551750295,15.4784809024805,0.868285748882143,0.99612275816924,0.176840600420998,0.240231687218789,0.155028602105724,0.482964211232808,0.159444004608202,0.0371824670418629,NaN,NaN,NaN,NaN,1.90759543141243,-127.844704273722,2.05624695258272,stable,stable,1,0.514508515925627,0.148807833582256,0.173669599303575,0.896930775805526,0.331098399064123
12,2.61788912614187,3,-0.779855335747467,-2.46422772026754,2.61788912614187,0.00731097886615056,0.00419907384599888,0.0084310517223803,-0.0410077033569156,-0.316253643433564,0.32100589835221,0.020718015428633,0.200888469289734,0.0747691515869634,15.4395581403552,2.34033642934517,2.3212158274404,0.0165019651448011,0.0736388840853662,0.150558115230585,0.501779937730052,0.00028996520693274,0.00638145138138856,NaN,NaN,NaN,NaN,3,-106.299635778902,2.41999263344343,stable,stable,1,0.713057597288557,0.0875206394338498,0.0549617848606637,0.955122535409999,0.33308528211974
13,1.96757375220863,2.83758735656738,-1.033741309156,-1.65828173912892,1.96757375220863,-0.0502786363963046,0.00532984422544117,0.0505603453047868,-0.0584956917381077,-0.145609913819219,0.159411095124009,0.0102791421500212,0.129203012065265,0.0459563031245944,15.4856848302615,0.893451063197133,0.786375821161714,0.176790243703501,0.240262833756748,0.156065977871292,0.38772814273007,0.158948296068824,0.0370295741373198,NaN,NaN,NaN,NaN,2.02726066309477,-121.319262228342,2.05370688469251,stable,stable,1,0.533877594547221,0.20502245761993,0.207122461399956,0.898406238342573,0.330637343168315
14,2.6447366811611,3,-0.733760132724193,-2.50355794339807,2.6447366811611,-0.0315810879909208,-0.00629038386275969,0.0322014603369342,-0.0329831258069598,-0.324659092880923,0.327840070705633,0.0211508818454706,0.200888686608443,0.0750722232743623,15.4563998974473,1.7277077079775,1.34548067643637,0.0626802572934186,0.240369349076947,0.122883521632011,0.453880087569853,0.00189513078517938,0.00762582322991992,NaN,NaN,NaN,NaN,2.96211416560549,-104.652706865072,1.72136380707756,unstable,unstable,0,0.720277559631167,0.085837847800523,0.0551180156583442,0.944513391190039,0.345385101496884
15,1.71047703992753,2.23771667480469,-0.910999213791006,-1.43512717398826,1.71047703992753,-0.0452036074632265,0.00694146817149191,0.0457334681394851,-0.0454900569107166,-0.108511234174742,0.119494987110053,0.00770566875270603,0.115134823686713,0.039934415232908,15.4574913537692,0.859931574404437,0.840490612294515,0.176430713865674,0.240197752934183,0.139561019897399,0.43357015671608,0.159493104310447,0.0365614170516712,NaN,NaN,NaN,NaN,1.78867162897179,-121.8764556945,1.65305642842102,stable,stable,1,0.464114093693922,0.127013387006266,0.160388917087798,0.898424183028814,0.3379728800456
16,1.75743784606457,2.78888869285583,-1.00248761213054,-1.41353323064599,1.75743784606457,0.00512117063071938,0.00582743315645036,0.00775792277751201,-0.0583657589300581,-0.108840965884473,0.128603268119625,0.00829800615619496,0.181114276293037,0.0601428871972474,15.4318012218552,1.967745363179,1.92177858185258,0.034006385009047,0.0706312244199281,0.124302777217301,0.495074408781659,0.0248735233564349,0.00444464336953835,NaN,NaN,NaN,NaN,1.79698325918466,-123.928221238646,1.5,stable,stable,1,0.480678669723334,0.233498726370579,0.152770369044433,0.952436262213086,0.344754321236755
17,1.85667646661097,2.75307559967041,-1.02436237033979,-1.52742406183448,1.85667646661097,-0.0592436448795161,0.00592408542779588,0.0595390984712234,-0.0586158915605276,-0.124773933062096,0.141377591600649,0.00911804029464782,0.147396978271544,0.0506017216877167,15.4487463181821,1.140575730636,1.23449386905304,0.176895346484507,0.240277010694519,0.155802679271861,0.47494503690832,0.15662676480337,0.0423820156547519,NaN,NaN,NaN,NaN,1.90606506718967,-122.683382350962,1.66121045172311,stable,stable,1,0.505234068767135,0.212605306324766,0.212586721319297,0.892891065617333,0.330754364768062
18,1.81278785475257,2.77877569198608,-1.02777449815479,-1.46946617108527,1.81278785475257,-0.0499501496279452,0.0191143432177862,0.0534824790422195,-0.0587607494746358,-0.117178538300851,0.135184252111606,0.00871920520284322,0.158186461086228,0.0535593819678587,15.447425863499,1.19235296933714,1.24346810928427,0.176814628933599,0.244188372334956,0.195895278814542,0.53636176545056,0.156588846625311,0.0413844534859836,NaN,NaN,NaN,NaN,1.87952489310621,-124.36494621675,1.98666373818625,stable,stable,1,0.494121970994258,0.22715238453528,0.220935365842472,0.892454091344032,0.312935431637981
19,2.62638285398483,3,-0.782716470946589,-2.47338296858083,2.62638285398483,0.00657644735349255,0.00348721896807702,0.00744381326502588,-0.0408738833735363,-0.318347089141942,0.322907678127682,0.020838635179106,0.193369375068943,0.0725978571460571,15.4169239719127,2.06485554326576,2.09431434689472,0.0268542441960815,0.0666866807286996,0.13091442134077,0.506402254913995,0.00091833862087767,0.00474569779445745,NaN,NaN,NaN,NaN,3,-106.031594526481,1.97376402847441,stable,stable,1,0.714888332491833,0.0854285569520007,0.0533909929582619,0.953893685907841,0.341815812737436
20,1.90592600374806,2.65194392204285,-1.01996230672506,-1.59546637297516,1.90592600374806,-0.0442812861092873,0.010863649435326,0.0455944204760432,-0.0568239792723565,-0.13494340635362,0.148790958025841,0.00959612968114243,0.127712451449947,0.0450310262117838,15.4597315595176,1.16218574564357,1.0802740465212,0.177079504478718,0.240252655406205,0.169171501272978,0.474850044398957,0.159505495270967,0.0351557221263671,NaN,NaN,NaN,NaN,1.95533603544456,-121.682915799118,2.25308243248575,stable,stable,1,0.517253139575172,0.176213008703602,0.189403035408745,0.893840920822204,0.324812666100899
21,1.92880259890135,2.973308801651,-1.06316834321781,-1.5785541733712,1.92880259890135,-0.0670905318516527,-0.000788633348841542,0.067095166790884,-0.0658892777712382,-0.136721775070515,0.157306655946974,0.0101440275032164,0.192526274467936,0.0648587015926323,15.4665645245641,0.94014107807531,0.848065629051383,0.175916471968777,0.240309365800268,0.140514806018396,0.451993361885994,0.159466055332399,0.0356451360183574,NaN,NaN,NaN,NaN,2.01006102178809,-122.843348050567,1.99004935609963,stable,stable,1,0.527319100025552,0.247314676197001,0.232224475731195,0.897991568459616,0.337548975102935
22,2.62664621909459,3,-0.750682716433006,-2.48328096540143,2.62664621909459,0.00733941929460575,0.0053520461826131,0.00908358265899831,-0.0385375131815541,-0.320907427847626,0.325076657999001,0.0209715248675117,0.197852626656561,0.0740358554042266,15.4548788469471,1.71828881398659,1.66518874985268,0.0189597198573661,0.0530762449575702,0.118433987169338,0.461770965324533,4.65261973952453e-05,0.00595525698369716,NaN,NaN,NaN,NaN,3,-105.373889448931,2.31014047438882,stable,stable,1,0.715246162839404,0.0856699241911993,0.0535881808187447,0.963935673498294,0.347362672369183
23,1.70504662049871,2.43950891494751,-0.835740002767601,-1.46903313946291,1.70504662049871,-0.0479831347375075,-0.00880518947921644,0.0487843477050037,-0.0395323773058106,-0.114855762696697,0.123659735121443,0.00797546280825066,0.133168337448086,0.0455333252002012,15.4372439199905,1.13951018883757,1.10232581123985,0.177535973122019,0.240226903107183,0.145519316508814,0.465619945899585,0.159385393012618,0.0361920559768131,NaN,NaN,NaN,NaN,1.75191981509009,-118.497538474994,1.93261923885373,stable,stable,1,0.463785763839696,0.174197813330231,0.188517388076123,0.893617587724097,0.335324748218305
24,2.68110516181537,3,-0.626295977591694,-2.57366904696409,2.68110516181537,-0.0276046837776379,-0.00873667553036387,0.0289542408946642,-0.0270161810824548,-0.339556282461265,0.341714194583656,0.0220437611384494,0.198565309472831,0.0750002256387639,15.4538106115696,1.59739061344437,1.2556552041632,0.0630139788494749,0.240469133539527,0.115916752391804,0.45107863182309,0.00189144027671677,0.00977838449348434,NaN,NaN,NaN,NaN,3,-102.185830974197,1.90749093079996,unstable,unstable,0,0.729961421611852,0.0770596160888959,0.0506321859557717,0.946076222008346,0.348481443381421
25,1.72428643135797,2.58846974372864,-0.933375503761502,-1.42152386183675,1.72428643135797,-0.0577853900108547,0.00883864313613775,0.0584574453016429,-0.0507011696849856,-0.111119989879196,0.126567573382482,0.00816171035363853,0.174840560270435,0.0581653653286775,15.4732420632802,0.921513161716412,0.886213010758467,0.175948006104533,0.240235495245449,0.159078664669525,0.439782483179252,0.159376460699179,0.0354409948356963,NaN,NaN,NaN,NaN,1.79680657025774,-122.144595008979,2.17101350661901,stable,stable,1,0.471442788094529,0.205158443588701,0.206816683171897,0.897822434164002,0.329298371257989
26,1.85271079484436,2.58053159713745,-1.04256738640277,-1.51606747993053,1.85271079484436,0.0033763041532879,-0.00056610213438325,0.00342343414746981,-0.0588976935990471,-0.120281387389208,0.136549422975099,0.00880856450369555,0.123311666037201,0.0431594949637471,15.4453202975558,1.63796535785167,1.64882464891143,0.021049116217239,0.0513296690857083,0.131261182488202,0.461162579858998,0.00578676769879403,0.00766134790266299,NaN,NaN,NaN,NaN,1.89015622586425,-123.159855511628,2.16537467324482,stable,stable,1,0.502688110951244,0.164387310109649,0.103990227512687,0.963650663266813,0.34166169667191
27,1.74796258763179,2.60049915313721,-0.836987472358864,-1.50734605467836,1.74796258763179,-0.06955445700515,-0.00682172813254593,0.0698881854392831,-0.042993359081434,-0.125161790549775,0.135682188946135,0.00874854613769927,0.186623236499625,0.0621109532462769,15.5029168021112,0.697130338690652,0.504529424277674,0.174509012945999,0.240246929870339,0.129518718033673,0.40234510707412,0.156567525607968,0.0399421273993727,NaN,NaN,NaN,NaN,1.77620387229689,-117.832865156267,2.00700870820324,stable,stable,1,0.478545547351066,0.204633561235921,0.206890113641835,0.903303881103678,0.342436125318368
28,1.73784593392063,2.48348450660706,-0.989317382871546,-1.41334128379144,1.73784593392063,-0.0630270571296376,-0.0131851021020186,0.0643914345846034,-0.0544998296773729,-0.106060260827662,0.121809891874767,0.00785557255363387,0.122413823500152,0.0422230478375893,15.4670385581608,0.998879650410921,0.876161328812905,0.176058588527027,0.240220211283976,0.169006291579829,0.429291447310348,0.159519276407015,0.0364742268566204,NaN,NaN,NaN,NaN,1.77693740749085,-123.63065316624,2.33710569194204,stable,stable,1,0.471870191946352,0.179573775194957,0.191905076518459,0.897238240899728,0.324886092631187
29,2.61731796145439,3,-0.514961986837988,-2.53447870223753,2.61731796145439,0.00807275339936513,0.00512850654600522,0.00956404343566986,-0.0225154299047046,-0.334150337680279,0.335658751246497,0.021659824065239,0.198804157523644,0.0748031241027606,15.4373097130986,1.98954809442093,1.44644581831941,0.0287591022923231,0.0510552960211481,0.114196608512707,0.442065417526408,0.00666374489466494,0.00865882306087105,NaN,NaN,NaN,NaN,3,-100.208461528465,1.89325180594074,stable,stable,1,0.71291208120839,0.087856866635968,0.0588244473104355,0.958623353825164,0.34924595177213
30,1.84195377794253,2.48282289505005,-0.927409354277762,-1.57724021038497,1.84195377794253,-0.0560402016001662,-0.00868810213507904,0.0567096756655938,-0.0472262386616402,-0.131627528981861,0.141687027901437,0.00913858661406341,0.130209533703996,0.0454598707410431,15.4316265813863,1.20845104216593,1.18791704259261,0.176961711802821,0.240260215365149,0.160822937781311,0.471404484261212,0.159537474594396,0.0362519164490985,NaN,NaN,NaN,NaN,1.90894849737311,-119.745808657761,1.90374957765885,stable,stable,1,0.500279648266216,0.154592325221218,0.176843454469306,0.892690537718344,0.328523138763862
31,1.89499705016208,2.72377729415894,-0.945022449602145,-1.62972663167183,1.89499705016208,-0.0342713793492843,0.00427195089682701,0.034536603871363,-0.0488290238186583,-0.140147903549024,0.150173502016264,0.00968337116507718,0.119166004159505,0.0425281610634057,15.4821536046532,0.843676915977233,0.821938048418409,0.176696894799862,0.240237961594152,0.149472196312926,0.441966682857111,0.159580931107474,0.0373546914822033,NaN,NaN,NaN,NaN,1.95935225919259,-119.13516242978,2.07239421289015,stable,stable,1,0.513838178922568,0.192807265609043,0.200192741810761,0.898564577879817,0.333567912749811
32,2.61680309971174,3,-0.642259125309345,-2.50175809165087,2.61680309971174,0.00603108840702614,0.00326834092600146,0.00685974341954138,-0.031095753402451,-0.325792181463531,0.328669335132031,0.0212008101209422,0.201450916595355,0.0752758420632662,15.4707798607825,1.51311650506563,1.4565144147083,0.033678238949324,0.0514649731844044,0.105708870902004,0.407650991123423,0.0256434384382847,0.00541765022865739,NaN,NaN,NaN,NaN,3,-103.01941117063,1.5,stable,stable,1,0.712869328335783,0.0874769221917753,0.0658532916940166,0.959828066155686,0.353018279599109
33,1.85758144758186,2.82322406768799,-0.81380286177073,-1.65004161833176,1.85758144758186,-0.0603160382680714,-0.0128615843689597,0.0616720749191668,-0.038877476266097,-0.145976526538783,0.153182011703861,0.00987711516890743,0.154007788103394,0.0531163170492534,15.493901952965,0.806435386494354,0.749141697759642,0.176895357555786,0.240305515705909,0.132874273533952,0.413620684290168,0.159593494827464,0.0365444722223846,NaN,NaN,NaN,NaN,1.93692079365451,-115.089103932968,2.05213224700983,stable,stable,1,0.505978316098346,0.228576136592394,0.221365023090934,0.899329929845825,0.340944767318244
34,2.60196873289803,3,-0.544136483071039,-2.51284422897466,2.60196873289803,-0.0117182910299505,0.0162119446564439,0.0200036370244568,-0.0257603495127275,-0.338493598539454,0.340482971306489,0.0219664076381206,0.197190883272418,0.0745337503284098,15.4410737885849,1.74571319322444,1.37644014049174,0.0626836405505233,0.240455158163959,0.122404831101604,0.385703331611996,0.00192103906285425,0.00911648258443907,NaN,NaN,NaN,NaN,3,-101.157933097739,2.36382241779848,unstable,unstable,0,0.70876507883849,0.0932243685524269,0.0601035008466621,0.944126974959826,0.345597852843731
35,1.8195218885837,2.61978340148926,-0.813889328744614,-1.60744301645917,1.8195218885837,-0.0547584911147208,0.00147676794354458,0.0547784007864417,-0.0387083583706874,-0.137633487423801,0.14514390096257,0.00936038354556971,0.146471613758838,0.0504937526095503,15.4656285780059,1.09937818675007,1.03474689801806,0.178060809728405,0.240258116202738,0.139790596114606,0.451980306014979,0.159605474825384,0.0349473189960353,NaN,NaN,NaN,NaN,1.86137587595629,-115.841095627455,1.70615983719468,stable,stable,1,0.495304587477562,0.190101547214599,0.197704810916377,0.894201469469762,0.337870846171286
36,1.96490959445635,2.88174510002136,-0.901477771281117,-1.71565142479,1.96490959445635,0.00823832526117925,0.00448668513715892,0.00938084999501575,-0.0496133233445698,-0.159455289785556,0.170768705642841,0.0110178821476698,0.202577634741259,0.0684858079257467,15.4585393515961,1.85269094159102,1.87709514965951,0.0169072520787088,0.0458601602791627,0.1298698008286,0.420950598135417,0.000324406483162879,0.00560740311679286,NaN,NaN,NaN,NaN,2.00134863438598,-116.022448666907,2.38864855267029,stable,stable,1,0.537673053440177,0.208007811251213,0.126987923088745,0.962240911815106,0.342280088520622
37,1.76898486516914,2.73973679542542,-0.792820655003941,-1.55365471446009,1.76898486516914,-0.0706960298213651,-0.000241834826189519,0.07069644345076,-0.0386578334938437,-0.132353339859266,0.140992186293712,0.00909187754710361,0.181601074848684,0.0608446367375778,15.4697465483691,0.909656334799027,0.923672484047151,0.176085299883739,0.240256902795228,0.136687128686708,0.417685587225534,0.156522863610245,0.0404094336033493,NaN,NaN,NaN,NaN,1.84847057739295,-116.145839673518,2.01815769427306,stable,stable,1,0.483898224725952,0.231380198940302,0.223088176016417,0.897552623624339,0.33925016502813
38,1.97671699361736,2.71852803230286,-0.777205290280326,-1.80206950308016,1.97671699361736,-0.0528138177903417,-0.00161933874180645,0.0528386374498069,-0.0346383115519741,-0.171001508060748,0.17575870772787,0.011332965978156,0.131365896053436,0.04734284500074,15.4943775274653,0.85749654002825,0.95724807050894,0.176579203168844,0.240269023629298,0.156926974435074,0.489687987064666,0.159515846908949,0.0371300073254347,NaN,NaN,NaN,NaN,1.9993932608471,-112.620106358339,2.48641485175583,stable,stable,1,0.536593100631445,0.176594567236701,0.190354493147166,0.897451690761357,0.330254678028856
39,2.6256541176637,3,-0.620762043844555,-2.51914997407666,2.6256541176637,0.00638172349893197,0.00398284829496718,0.00752259764692646,-0.0289194020592541,-0.330145336346585,0.332567478979826,0.021459902554014,0.195004049383443,0.0735231466028428,15.4531628470053,2.01896142927636,1.76401529416559,0.0209684439346839,0.0531885593667081,0.122145889326897,0.432541574703036,0.000232608932907113,0.00602320674412064,NaN,NaN,NaN,NaN,2.9987372183553,-102.731971335258,2.22607562689382,stable,stable,1,0.714879060697556,0.0856069664276037,0.053657818602383,0.959792389491328,0.345712938076935
40,1.90584236342891,2.7288875579834,-0.295171572758526,-1.86514750201676,1.90584236342891,-0.0558278097770049,-0.0174359413506809,0.0584872327545237,-0.00843374556170046,-0.185124369207989,0.185521056632818,0.0119632672656735,0.156507499071332,0.0553265368073709,15.4844830938216,0.969509393540998,0.727091646684695,0.17682961521701,0.240240738383159,0.157838212396727,0.401482738212888,0.159459693777726,0.0378264742517241,NaN,NaN,NaN,NaN,1.96262077332345,-97.9255988407311,2.46172899391904,stable,stable,1,0.519289937609183,0.19590782811309,0.202170753426258,0.898254755646865,0.329849683379232
41,1.88402754108922,2.68107962608337,-0.268569915035338,-1.84762373676229,1.88402754108922,-0.0527553086533398,-0.0251604480235202,0.0584480173817163,-0.00725433289134439,-0.180261012923659,0.180577938767885,0.0116443018350159,0.135596435239985,0.0488299418565067,15.4740689384655,0.91981663329595,0.6271570474656,0.176024518910474,0.24022068565509,0.109847447310879,0.405310498236444,0.159531177204927,0.0362455900005183,NaN,NaN,NaN,NaN,1.94919332297993,-97.076725643542,1.90484962058632,stable,stable,1,0.51217333266176,0.190052188976999,0.198114273356255,0.899832947338779,0.351178912306276
42,2.61886250734329,3,-0.638866132341563,-2.50775847396619,2.61886250734329,0.00608882762489702,0.00307976187208848,0.00682339761661879,-0.030168007794447,-0.326994835899515,0.329644794640175,0.0212647324567686,0.194274857404513,0.0731677699410919,15.4602537477772,1.60145772395795,1.5376141892674,0.0193282727861025,0.0491883542805571,0.10610892191818,0.453100907825208,0.000471486560103153,0.00658248783669379,NaN,NaN,NaN,NaN,2.97766096785849,-102.83550377438,2.27645189367263,stable,stable,1,0.712996889279763,0.0870068920774727,0.0548073167693676,0.965671727145892,0.352840479147476
43,1.85047343799046,2.56813335418701,-0.243846432061375,-1.82208467047085,1.85047343799046,-0.0435368472548695,-0.0108434666539166,0.0448668902194975,-0.005487073366363,-0.17496048997244,0.175153439728674,0.011297099293785,0.13489519521682,0.0483765280706954,15.4556249638756,1.27190761794159,0.900152619423429,0.176618900380322,0.240213008575815,0.157068343210608,0.443786640449562,0.156546351233504,0.0421697521996413,NaN,NaN,NaN,NaN,1.87761184680711,-96.9149867627548,2.4874680796624,stable,stable,1,0.503134889078262,0.169699077684465,0.186730058059783,0.894624362230542,0.330191847461952
44,2.56250112115601,3,-0.632056900810354,-2.44377631178158,2.56250112115601,-0.0301799241997046,-0.0103755067231016,0.0319136172262099,-0.0274254495241807,-0.30833692453102,0.310879336633548,0.0200569471015011,0.224362534075037,0.0813486231935618,15.4292312340748,1.65115393402932,1.07971882732759,0.0637952916362164,0.240254987140666,0.115385892472645,0.423250112352457,0.00185143985326636,0.00770296467408811,NaN,NaN,NaN,NaN,2.70268226585959,-102.84402520654,1.5,unstable,unstable,0,0.699603356946982,0.104288077564703,0.0661967867591338,0.94664549677123,0.348717381123269
45,1.68878735247112,2.38775062561035,-0.231981121594767,-1.66190439648361,1.68878735247112,-0.039305038680798,-0.0168988931777228,0.0427838597642979,-0.00479237181469542,-0.146423392453978,0.146600741222561,0.00945457857855788,0.122671879915857,0.0434197689797477,15.4459867328684,1.11497279489245,0.861598743336114,0.176915873755843,0.240229415911955,0.143254927388324,0.501424697741921,0.159554272496323,0.0355968785666481,NaN,NaN,NaN,NaN,1.74484723470437,-96.8322370152764,1.73221626979305,stable,stable,1,0.459027247788249,0.165110444079781,0.182923595925015,0.896011858178854,0.336331143382967
46,1.66110325495402,2.30085968971252,-0.215605349275625,-1.63584413208992,1.66110325495402,0.0012545768325703,0.00208719505957325,0.00243523022433796,-0.004307944003781,-0.140367395054607,0.140512529948258,0.00906538523331762,0.119228762300484,0.0421143983534675,15.458648114261,1.86225063851439,1.82230992156024,0.0168245611077879,0.0739453584339706,0.120130019062644,0.470045661777789,0.000205187201408141,0.00549470563052353,NaN,NaN,NaN,NaN,1.71876069037497,-96.5690723186371,2.38024487157049,stable,stable,1,0.451383747658432,0.144391656695125,0.088724263103548,0.962637600759805,0.346608880416602
47,1.75234035407605,2.68892860412598,-0.147374195796515,-1.71991289197799,1.75234035407605,-0.0663285800343448,-0.031491664426229,0.0734248286188446,-0.00429413816089303,-0.163206120689116,0.163435561098275,0.0105402686656914,0.189613217833464,0.0642621534160232,15.4697661430106,1.08936286840642,0.921996374953186,0.177324677427058,0.240272788179,0.137086550671501,0.447244245292377,0.159534899922137,0.0378253167580535,NaN,NaN,NaN,NaN,1.8330973949862,-93.5355183886098,1.61454921232956,stable,stable,1,0.480143191770151,0.224193574841355,0.2191752055095,0.89553412437436,0.339072644145999
48,1.70371803377761,2.50285983085632,-0.209455635326147,-1.67348437871669,1.70371803377761,-0.0519299960128314,-0.0108844961169522,0.0530584276209975,-0.00531352507077526,-0.149571471442982,0.149796770478198,0.00965914151581755,0.147396394103022,0.0509803172919787,15.4891743111958,0.910667853641111,0.664211267935204,0.177029024960312,0.240212107379396,0.142918959317714,0.400715773796101,0.15954579239568,0.0388321063219115,NaN,NaN,NaN,NaN,1.76093856199151,-95.8152911333806,2.08209518664445,stable,stable,1,0.464520872465759,0.189534282739893,0.198750576643923,0.899111437278887,0.33648046252546
49,2.63224500338236,3,-0.678857056315981,-2.51080399548643,2.63224500338236,0.00667992275296192,0.00492589353365607,0.0082997466883305,-0.0328752627232079,-0.327658140660067,0.330713050052656,0.0213391056626426,0.193494793759212,0.0729858120916133,15.4386012033277,1.93693310289081,1.77731048066983,0.0221489005682184,0.047983191641099,0.123900507416697,0.386427459345783,0.000414176906524534,0.00912711429715651,NaN,NaN,NaN,NaN,3,-103.690253195533,2.1981590405502,stable,stable,1,0.716529163320287,0.0842664944651619,0.0540629259577306,0.959742207273629,0.344933107814801
50,1.6438906772607,2.48689293861389,-0.156175936836283,-1.614673801496,1.6438906772607,-0.056357507190158,-0.0199046325053867,0.0597692480449872,-0.0042746808810123,-0.142129629020956,0.142335227874147,0.0091777518985549,0.169105516539808,0.0571560812909309,15.4968129337846,0.788664365201879,0.642288168569966,0.17613162201863,0.240200090555334,0.120163385017203,0.379810319720907,0.159450856228217,0.0378020556609795,NaN,NaN,NaN,NaN,1.72627812567413,-94.411640590645,1.68854823652989,stable,stable,1,0.449802063527707,0.200633204279382,0.204993171838708,0.900690990511049,0.346594051103465
51,1.59385866088932,2.13381910324097,-0.13256422609533,-1.57809747414628,1.59385866088932,-0.0331214377153977,-0.0174921486864934,0.0374567070363288,-0.00228539618181873,-0.130903275365887,0.13096328964431,0.0084452189358296,0.103267092304011,0.036891780946284,15.4777839325989,0.959720832597689,0.726089728089201,0.177446555553706,0.240172290776668,0.129175699920776,0.486453576859286,0.15950537365771,0.0338626018617589,NaN,NaN,NaN,NaN,1.64198518080473,-93.7945426045898,1.63158747308715,stable,stable,1,0.432407332426409,0.128358162485781,0.160219848076949,0.89803106781775,0.342588577812989
52,2.60132919545955,3,-0.621018963442564,-2.49154223950501,2.60132919545955,0.00919715711079208,0.00415992100665441,0.0100941885113266,-0.0296950974955512,-0.324419995384597,0.327008649863572,0.0211028925061815,0.203851536492319,0.0759274857020227,15.4401294605736,2.12316561565167,1.89662652368163,0.0210715598155806,0.0528487848395202,0.147170727665692,0.386534851234308,0.0164180452463943,0.00596466945674354,NaN,NaN,NaN,NaN,3,-102.899260755177,1.94165174605569,stable,stable,1,0.708873282596285,0.0915515322486776,0.0643967990591471,0.957880138997448,0.334590787704137
53,1.68712691252664,2.37933349609375,-0.142861915095318,-1.66578430518698,1.68712691252664,-0.056764940201207,-0.0234140726872495,0.0614042118738642,-0.00322478315022972,-0.147197078516303,0.147303988765598,0.0094993199636198,0.117429523793173,0.0418783811124858,15.4717080451594,1.05233381759113,0.606170156844894,0.175662725040803,0.240226918712022,0.157572657775695,0.387369346810427,0.157017128081712,0.0365541614290201,NaN,NaN,NaN,NaN,1.76767167051157,-93.7767495596924,2.39153884652686,stable,stable,1,0.4582761862296,0.167003920146142,0.18328016468405,0.899137534823315,0.329967707655247
54,2.67355241604371,3,-0.586083017143738,-2.57037922419711,2.67355241604371,-0.0313789815574374,-0.00502905756717097,0.0317794257908465,-0.023747253529593,-0.340267263754304,0.34202338529243,0.0220626055169399,0.199366071728505,0.0752536453804092,15.4588482722784,1.53343015782493,1.28217667377521,0.0629642310965756,0.240289271877501,0.107928901034982,0.465444620299738,0.00183600740391504,0.00588161073938529,NaN,NaN,NaN,NaN,3,-101.106544404973,1.60613793429186,unstable,unstable,0,0.72799804002107,0.0792769344518212,0.0505209315033163,0.946395259346283,0.352031599540008
55,1.61681783402047,2.47288799285889,-0.154855157064391,-1.58655409438028,1.61681783402047,-0.0594138922803021,-0.0195926475673766,0.0625610296797836,-0.00417784551025966,-0.137521823635203,0.137750829116159,0.00888480478978019,0.170673127540613,0.0574213016150299,15.4415322158977,1.22392366323944,0.901878957837624,0.177411723430734,0.240204592635038,0.158250662841849,0.505378854280385,0.159309332828552,0.0360938237512226,NaN,NaN,NaN,NaN,1.6954412846166,-94.4207914550518,1.76183932132496,stable,stable,1,0.442635682728465,0.204085307846604,0.206380359450389,0.894591403404742,0.329666372070289
56,1.70275755564372,2.34297776222229,-0.0946116694048655,-1.6880835567649,1.70275755564372,0.00330223416596651,0.00163518074674889,0.00368491065853906,-0.00175407822135868,-0.14913865855155,0.149189741952321,0.00962632695947979,0.119077471865725,0.0424616704313535,15.4493042706319,1.98933958906578,2.17509550075062,0.0144464700392498,0.0664001173962109,0.135939738468728,0.463801967761404,0.00012635545704739,0.00604309442256051,NaN,NaN,NaN,NaN,1.73280982852964,-92.1431804697514,2.48480904209974,stable,stable,1,0.462561015591262,0.144725113434244,0.0890887149223876,0.960056203560389,0.339582338458343
57,1.61350186179284,2.2060067653656,-0.193796663489254,-1.58983294264136,1.61350186179284,-0.0424926621885688,-0.00501835806893683,0.0427879686077744,-0.00397641207605013,-0.133198240043808,0.133343628604732,0.0085987993579874,0.110703187004006,0.0392301156517931,15.4570501803803,0.910257005678447,0.622951346055634,0.17662441463032,0.240182934995231,0.126868123793509,0.35347303896482,0.159538008009355,0.037196123467628,NaN,NaN,NaN,NaN,1.65239533729994,-95.8334835366937,2.11580218454858,stable,stable,1,0.438113186275117,0.141158064215296,0.169126482945806,0.899641155635501,0.343614167202885
58,1.6535689506401,2.34955763816833,-0.0969785214395853,-1.64047208091848,1.6535689506401,-0.040166598132611,-0.0244786176573771,0.047037839320729,-0.00172169451828295,-0.142252954536976,0.142292844876372,0.00917589817856481,0.11962104351699,0.0423094417800924,15.4640874023028,1.00008870325154,0.928118311236317,0.177127322232896,0.240208192090596,0.136873048832214,0.46655437397945,0.158340391552799,0.0370290547174145,NaN,NaN,NaN,NaN,1.68060545220575,-92.4282145747537,2.03064563272527,stable,stable,1,0.449413608526712,0.16522105856932,0.182971253304724,0.896286140912576,0.339167533852349
59,2.53417660991351,3,-0.521003655467087,-2.44774662672348,2.53417660991351,0.00649279899295964,0.00350406409508543,0.00737800135168357,-0.0231301248328409,-0.314025056804781,0.31573652496249,0.0203652045123152,0.210765158719683,0.0774851907745257,15.46089133064,1.4094196645377,1.44396449145262,0.0192257158194224,0.0460160582850476,0.101180610356652,0.378053649881659,0.000256633531653003,0.00485123436691871,NaN,NaN,NaN,NaN,2.78982386220964,-100.41262924442,2.2581182415496,stable,stable,1,0.691277467465174,0.106162896350603,0.065575882382097,0.967967695150365,0.955030839841488
60,1.6571764248569,2.27702903747559,-0.0739592772709829,-1.64473473374153,1.6571764248569,-0.0324953705972952,-0.0102334188926938,0.0340686361994269,-0.00120958176980341,-0.142938622463451,0.142977514754366,0.00922016505178386,0.119430079917449,0.0422831395114833,15.4527693933453,0.991928908888524,0.715909296253317,0.176522074002062,0.24020975405467,0.140601634487977,0.369829734983054,0.159609403738117,0.0372507264586908,NaN,NaN,NaN,NaN,1.72864210057146,-91.9462754292346,1.65292763036559,stable,stable,1,0.45037034119747,0.145712754475766,0.171910884170207,0.898320234244283,0.33751038467201
61,1.60807322482673,2.23794889450073,-0.184859126648725,-1.58246846581577,1.60807322482673,-0.0445982012569811,-0.0218994651728774,0.0496848682217862,-0.00420603907544695,-0.132995464437758,0.133167671207929,0.0085872360782455,0.122292710583066,0.0426988784296917,15.4762495150325,0.889446458259291,0.733369728435014,0.176292590930521,0.240160704703585,0.158711278173798,0.341125838552924,0.158119326068529,0.0371394228708263,NaN,NaN,NaN,NaN,1.6541677253945,-95.777639022521,1.60687075315956,stable,stable,1,0.437359302306401,0.150830918183977,0.174279051621144,0.899103005924998,0.329461654144979
62,2.60544098416964,3,-0.535332978008661,-2.51671080064395,2.60544098416964,0.00758968753536185,0.00672225398436571,0.0101386416996927,-0.0241951806832557,-0.329663507940958,0.331463041123657,0.0213818028138148,0.201134522160059,0.0753076186176881,15.459807498948,1.56715308667698,1.2633614141063,0.0286448846686367,0.0479950553443525,0.0983497864035241,0.369469679025043,0.0073301033974463,0.00566149610071956,NaN,NaN,NaN,NaN,2.96888331606625,-100.576107342626,1.8903995419172,stable,stable,1,0.709845786168775,0.0906345295401075,0.05969726731107,0.963437800873813,0.356288983820656
63,1.56891095030064,2.23549270629883,-0.0874067869075101,-1.55646987006094,1.56891095030064,-0.0321089276040069,-0.0222065170951819,0.0390398851609218,-0.00153029959251795,-0.128599952654508,0.12863846403131,0.00829550168314641,0.118537854356778,0.0413682074852359,15.4524332641423,0.914177361718372,0.379274466489297,0.176854595577935,0.240173448317681,0.110646084772339,0.332950861713009,0.159024430498045,0.0357517517765267,NaN,NaN,NaN,NaN,1.60300708299886,-92.1234906695166,2.45011066480617,stable,stable,1,0.426649894910552,0.157138207379094,0.1779610861029,0.901409866417972,0.350823962323405
64,2.67227627395415,3,-0.648643473713869,-2.55308523577958,2.67227627395415,-0.035000287784502,-0.0045001994336536,0.0352884108446472,-0.0268314768591179,-0.336914032245911,0.339065155845359,0.021873941858341,0.195945697241385,0.0740954684732541,15.4576032193736,1.64724015328373,1.2459386072523,0.0629401473775614,0.240192228627952,0.109319030776488,0.452331461624005,0.00187562613273801,0.00891176239949382,NaN,NaN,NaN,NaN,3,-102.201792877698,1.80583648044898,unstable,unstable,0,0.727426100082424,0.0802073803485019,0.0521986806961946,0.945797807478436,0.351413764099339
65,1.50227276808551,2.15092802047729,-0.137505785643637,-1.48117428341022,1.50227276808551,-0.0423375372768701,-0.0177202914239726,0.0458963592327417,-0.00301062660018877,-0.117096138341727,0.117220840074527,0.00755891579806617,0.11919980820558,0.0410511835203203,15.4845451874944,0.937791949733507,0.722997816577769,0.176762115365,0.240178512524372,0.166419323273539,0.439905413777481,0.159599585447084,0.0357072320816537,NaN,NaN,NaN,NaN,1.55228808798252,-94.2268777224065,1.93620116640166,stable,stable,1,0.408816308193532,0.154361764314155,0.176534655705779,0.898569879867911,0.326035856322872
66,1.55844389716784,2.47997641563416,-0.115463093704334,-1.54411348123813,1.55844389716784,0.00288126459958125,0.00234340986563134,0.00371392723288144,-0.00195659562446879,-0.125141333266419,0.125188487398078,0.00807616326699909,0.107819422110745,0.0379991409201228,15.4545656241118,1.6817053716729,1.72933483529258,0.0164937420457366,0.0501818724282449,0.113987342199909,0.384555153631428,0.000236914737309866,0.0073684291071372,NaN,NaN,NaN,NaN,1.60696450398557,-93.5145725727472,2.37817779458515,stable,stable,1,0.423184867428782,0.208025703314282,0.127600146193605,0.964952098779546,0.349338959022262
67,1.67142618756716,2.32180571556091,-0.120312376599562,-1.64889817557874,1.67142618756716,-0.0470322264356422,-0.0160440640075062,0.0496934836107359,-0.00282423831669122,-0.144046535335431,0.144167763072643,0.00929616602858192,0.130160694931086,0.045555524699333,15.4801771388473,0.822310843619281,0.606453519872101,0.176557898987186,0.240200848727487,0.100765799633064,0.3752983735445,0.159564536830736,0.0347414347988426,NaN,NaN,NaN,NaN,1.70472744872138,-93.0615211949791,1.53590487260764,stable,stable,1,0.454824754957776,0.155445865793896,0.17681834041887,0.900495044793261,0.355215200163083
68,1.59478314312137,2.33361721038818,-0.118742290346267,-1.5802889788158,1.59478314312137,-0.0353945319625378,-0.00943146400153093,0.0366295701047566,-0.00201755472611549,-0.13166086461868,0.131713118860863,0.00849278230338339,0.112904624345052,0.039816334915884,15.4970602918774,0.777746459069611,0.604083243083468,0.176192914693286,0.240213998005739,0.144487372892572,0.373886380492732,0.159521681788686,0.0352056948583685,NaN,NaN,NaN,NaN,1.6346567991892,-94.1375227104005,2.30891559875531,stable,stable,1,0.433238771815542,0.172953086320905,0.187472447889548,0.901046309279297,0.335783389825524
69,2.62666479667028,3,-0.398821406300195,-2.56682845398785,2.62666479667028,0.007641443705405,0.00798667592423323,0.0110534453552546,-0.016168072275876,-0.342376400160135,0.343228063188132,0.0221519082693068,0.18846709486966,0.0720464642494128,15.4023434889227,2.24544490292105,1.86142466934686,0.0226255440564712,0.0730159058754265,0.134417786158185,0.484865487970132,0.000162430334630224,0.00556682702806867,NaN,NaN,NaN,NaN,2.97762147861884,-97.4745863886534,2.15159758872574,stable,stable,1,0.714853238628623,0.0860268857309841,0.0537126234359056,0.956418967046802,0.340258761707473
70,1.70965368650397,2.3429126739502,-0.0807691491320348,-1.68962829883532,1.70965368650397,-0.0549496338024978,-0.0184397607394456,0.057961082039215,-0.00191914691438053,-0.151574632024831,0.151668598680456,0.00978089337037724,0.136193251584405,0.0477046008345857,15.4470848377976,1.01205244849428,0.75544086418298,0.176685971874917,0.240218383613895,0.138560556062188,0.39714003926316,0.156817245530123,0.0420830748619669,NaN,NaN,NaN,NaN,1.74106956136438,-91.9626622500687,2.28598039528784,stable,stable,1,0.465448569901311,0.153109470549256,0.17686517221194,0.897769566605792,0.338417530639028
71,1.6504559111433,2.36208391189575,-0.181780914440727,-1.6302157952514,1.6504559111433,-0.0350240113975998,-0.0038372554702891,0.0352335905624656,-0.0034383431139072,-0.140551294086263,0.140649884397171,0.00906953881664293,0.114521876431815,0.0407052401011946,15.4786351580228,0.891374139356095,0.764294811314124,0.176838671050151,0.240216486008928,0.144890449202475,0.41161271370283,0.159785238186537,0.0371192204274414,NaN,NaN,NaN,NaN,1.67774962146967,-95.9395937551425,1.69404287964389,stable,stable,1,0.448262624325118,0.166575791772421,0.184459034816943,0.898571837005373,0.3356042447989
72,2.61985878705978,3,-0.613281710041783,-2.5147791719475,2.61985878705978,0.00901121587234435,0.00428017263482686,0.00997606582185139,-0.0285218945692564,-0.328954248528633,0.331346532828442,0.021377165875665,0.196559104083991,0.0739317473381626,15.4557221789221,1.80269786966655,1.64142917574044,0.0252745344315528,0.049343862425624,0.115862566959599,0.377932440581395,0.000170949673252486,0.0080567131623595,NaN,NaN,NaN,NaN,3,-102.28205700878,2.05978094275059,stable,stable,1,0.713415359350241,0.0873607183122214,0.0554221224971111,0.960301734570312,0.348505525795734
73,1.66267031187914,2.44015192985535,-0.16739329624945,-1.63793572989022,1.66267031187914,-0.0489230195266359,-0.0160732170324509,0.0514957293896869,-0.00408998061772992,-0.143795515514978,0.143954159443888,0.00928317554323632,0.143547347407942,0.0495624271026482,15.4633443839217,0.985199032358395,0.65613164366597,0.176203620036634,0.240199645255031,0.149350799115301,0.367396828473057,0.159550036806998,0.0341855014291136,NaN,NaN,NaN,NaN,1.730743683828,-94.7490683234343,2.36891999941039,stable,stable,1,0.453291235254967,0.184374247766089,0.193966767558199,0.899002020384349,0.333621867059866
74,2.62792039229015,3,-0.576818703458175,-2.52769409326952,2.62792039229015,-0.019500133248282,0.00623690305854519,0.0204732546621792,-0.0278766667869104,-0.338980710609983,0.3413511246352,0.0220238828894205,0.207521714830511,0.0776732324717476,15.4435220784655,1.81237627027754,1.50808060411219,0.0628439596786182,0.24030166722629,0.128959111586823,0.3912844041211,0.00190832503398026,0.00728393097375599,NaN,NaN,NaN,NaN,3,-101.440236798872,2.13064472157579,unstable,unstable,0,0.716313417771722,0.0874713417561164,0.0559796516854915,0.942488716147629,0.342684839294746
75,1.66519939737255,2.61085224151611,-0.189208254988428,-1.63239734494768,1.66519939737255,-0.0566249956855378,-0.0299974035275507,0.0640799060141468,-0.00550971308932831,-0.145150119246942,0.145451626170955,0.00937987898630246,0.171571283129415,0.0580373002292362,15.4723910460007,1.0435925243136,0.784344250429993,0.177129312563108,0.240220634368649,0.128323306647835,0.457488679629025,0.159479086338569,0.0373798981923899,NaN,NaN,NaN,NaN,1.72844746755899,-95.0560971705178,1.63074424026124,stable,stable,1,0.455660632678527,0.224519872701562,0.219184207800968,0.897072983345461,0.342967419267629
76,1.76359060664972,2.52831649780273,-0.228008240002589,-1.73629315794219,1.76359060664972,0.00494064477145119,0.00920454118626672,0.010446700398085,-0.00513290120680477,-0.158242607265447,0.158429107799247,0.0102197028944326,0.122096590883095,0.0437827692910313,15.4663350149616,1.58671572773021,1.27228298917637,0.0323989177285482,0.0584911449745852,0.108164853878575,0.444912981426105,0.0239486203305051,0.00467225265917417,NaN,NaN,NaN,NaN,1.80133462105751,-96.2777836497926,1.60705220840755,stable,stable,1,0.479047382298131,0.173978553915745,0.116729964574421,0.961336979788603,0.351926731609522
77,1.71058696868436,2.42603182792664,-0.145976163842054,-1.69069538906655,1.71058696868436,-0.0485648399626238,-0.0144201886961056,0.0506604927199347,-0.00303093776629536,-0.151079028511359,0.151170636028921,0.00974745703205207,0.128855131396525,0.0454797593413938,15.4972185895087,0.800209508846427,0.647129784611426,0.17550809485113,0.240192126877455,0.115114976222821,0.374880459074912,0.160234826578098,0.0340627555424488,NaN,NaN,NaN,NaN,1.75923009576763,-93.8331549635916,1.54264306898382,stable,stable,1,0.465252476850774,0.170262850328168,0.185759645236946,0.900874000982981,0.348837788345413
78,1.77877212690827,2.77366542816162,-0.223532761358684,-1.73926723980469,1.77877212690827,-0.0728994615798876,-0.0338675293558549,0.080382467263124,-0.0070111946089732,-0.167452135722516,0.167840320686324,0.0108234555950907,0.183498670927756,0.0626260201948902,15.4645384314574,0.987907756199798,0.715244977699335,0.175424882001184,0.240246727066479,0.149975364782992,0.393157094904277,0.157299817591054,0.0358393963064401,NaN,NaN,NaN,NaN,1.84421771642335,-95.6415120879709,1.51506180005841,stable,stable,1,0.486864437881183,0.23858777844691,0.226096204856411,0.898905644661629,0.33334428231867
79,2.61318981965383,3,-0.404958556905239,-2.55059127852756,2.61318981965383,0.0075454831509573,0.00571564476457703,0.00946588141993218,-0.0164743577144649,-0.338598452560356,0.339488244175663,0.0219044120339056,0.19623086196486,0.0742023470131918,15.4477548978386,1.93247578880637,1.80196543393533,0.0138570582880091,0.0699280401020077,0.125746357875655,0.483772274639369,0.000258648606263905,0.00706998843610312,NaN,NaN,NaN,NaN,3,-97.5958361626102,2.48720507739053,stable,stable,1,0.711691087976993,0.0887677021715427,0.0559464811248986,0.963729432677311,0.344112729833042
80,1.78535229413688,2.62861394882202,-0.21780889672302,-1.75819945540376,1.78535229413688,-0.0402998897642166,-0.0163889902179657,0.0435049435739501,-0.00501311626878228,-0.163249048755263,0.163424054459158,0.0105381410427685,0.128335806168136,0.0458774405803788,15.4793450413293,0.926839814323738,0.589694345008093,0.176637764155703,0.240243410487838,0.105499513762852,0.408817903394073,0.159812882264772,0.035677814518478,NaN,NaN,NaN,NaN,1.84269174465958,-96.4089816842801,2.44475416023006,stable,stable,1,0.485269433219243,0.197709778626048,0.202627565582853,0.899765492384541,0.35311132721651
81,1.82622293631236,2.56830143928528,-0.202228691298381,-1.79855332787971,1.82622293631236,-0.053865584241201,-0.0273512758992535,0.0604118652167189,-0.00513206911396754,-0.172126748724731,0.172310880176391,0.0111122015565726,0.14872970574799,0.0523974528139979,15.4719668792868,1.08715647789995,0.867918165280026,0.176396500899871,0.240218066109417,0.158728958300362,0.463280463665086,0.156828689581266,0.042215107660134,NaN,NaN,NaN,NaN,1.90149022471625,-95.3637271300002,2.26430951258077,stable,stable,1,0.497472273579428,0.178043171791972,0.191878491129128,0.896440448782222,0.32945379631095
82,2.5900063097477,3,-0.414867868496163,-2.52662270255949,2.5900063097477,0.00746705315072478,0.00322606716104315,0.00813414974556713,-0.0169800273273033,-0.333003030342689,0.333963619085183,0.021552069332646,0.199663841171729,0.0749856008843709,15.3983391285664,2.02702569572261,1.93286820800847,0.0281762323557255,0.074878484320292,0.120337329793453,0.478202594495606,0.00543393233498433,0.00623378456315142,NaN,NaN,NaN,NaN,2.91783086718893,-97.7855854258006,1.92508356708151,stable,stable,1,0.705665469442926,0.0937398410934558,0.0609258164440811,0.954798431721393,0.346516742314021
83,1.72252634593419,2.29940271377563,-0.301632932584437,-1.68397313002122,1.72252634593419,-0.040079866124888,-0.0149986502217943,0.0427943358058596,-0.00705889074875201,-0.148793016269287,0.149117369244773,0.00961727013032788,0.106161615437212,0.0385805737223931,15.4361712219299,1.16858349783883,0.938253676522463,0.17716275550713,0.240189154492362,0.133116518747313,0.456093524457402,0.157940044841959,0.0349054305140378,NaN,NaN,NaN,NaN,1.75027764965131,-99.5200046041142,1.65085226095345,stable,stable,1,0.467056473660262,0.1376428109954,0.165474145905842,0.894864901590739,0.340837102778972
84,2.62594425393744,3,-0.431162265680391,-2.55556341276643,2.62594425393744,-0.0212505329074519,0.0025783172679427,0.0214063744895035,-0.0184446557025748,-0.344161070927633,0.34530712446003,0.0222796806718771,0.204740453741656,0.0770179125928108,15.4294608789787,1.80653125615504,1.30889302545024,0.0626860062968056,0.240451074396475,0.120994185022439,0.452063234251027,0.0018977534626492,0.011112103320616,NaN,NaN,NaN,NaN,2.95681470906161,-98.270421652992,2.08109152808283,unstable,unstable,0,0.715655383568546,0.088087044853818,0.0577364377395508,0.944178663210413,0.346224806656694
85,2.05148428597966,2.92382478713989,-0.46072082845266,-1.98556626864314,2.05148428597966,-0.0430632645897514,0.00348063341083704,0.0432036985230151,-0.0139834000570304,-0.20764613752628,0.208460834250237,0.0134427253833659,0.135854763437041,0.0501663367994686,15.4734333731082,1.00650981881791,0.72342825341434,0.175396630220344,0.240311169422984,0.137607293036954,0.417255254645051,0.156624532769092,0.0415443359457112,NaN,NaN,NaN,NaN,2.10680641889481,-101.731697741666,1.91462393873956,stable,stable,1,0.557095743621136,0.204197290823606,0.207236309200079,0.898709314322289,0.338841203094687
86,1.96329743266106,2.9430718421936,-0.555905101517338,-1.85355673474703,1.96329743266106,0.00488153760981581,0.00133142261332168,0.00505985134280747,-0.0232362451886082,-0.185713695410129,0.188417348312436,0.012156743847242,0.209281129597013,0.0712940595721733,15.4627962038295,1.88057959561396,1.73675975844667,0.0338874406940224,0.0538354303718616,0.1371129692179,0.408293267215452,0.0235672376998277,0.00580714991429069,NaN,NaN,NaN,NaN,2.01104491577433,-105.279667622794,1.5,stable,stable,1,0.537804793957383,0.221376881557671,0.145412147679117,0.95463432758537,0.339060902569822
87,1.99269621712821,2.98894238471985,-1.14734032022751,-1.59592984662117,1.99269621712821,-0.0835263135437431,0.00536079270185733,0.083698166960812,-0.076017338107787,-0.139035647326224,0.165166633574792,0.0106519721605599,0.194580154025372,0.0658304267200035,15.463685896444,1.10627972661258,1.14378698172729,0.176161610699517,0.240294831614302,0.15711602947287,0.478578798656841,0.156378509961696,0.0401004321784226,NaN,NaN,NaN,NaN,2.06469467336038,-124.238920485483,1.53966298958796,stable,stable,1,0.544551743244856,0.239500051650934,0.227783566311145,0.894240099084714,0.330170653567613
88,1.9561077267737,2.81539845466614,-1.120349788553,-1.58002489203298,1.9561077267737,-0.0608892499070329,0.00699675048003379,0.0612899279777759,-0.0704073635766046,-0.134180915826475,0.155978548164443,0.0100578567611527,0.158922159059427,0.0547171474506349,15.4889594089333,0.871587842025235,1.03085477644691,0.175724651633502,0.240248638388255,0.15976054165785,0.445155893841936,0.156615387583979,0.0410182666001634,NaN,NaN,NaN,NaN,2.00959748573364,-123.70580417537,1.83741249404432,stable,stable,1,0.53257215662978,0.204576900571724,0.207268712578398,0.897189910752396,0.328995314818734
89,2.62132090250651,3,-0.243088472620279,-2.57951574782624,2.62132090250651,0.00359740404641864,0.00557219006480023,0.00663254234750504,-0.0092247489043641,-0.346114633610305,0.346509350878743,0.0223616674153993,0.194429554687881,0.0739820335971437,15.4021419792467,2.00641352518957,1.84727448554961,0.0304898743750098,0.0759907325500474,0.12557935497582,0.523825476901752,0.00964206767143036,0.0048299026507814,NaN,NaN,NaN,NaN,3,-94.0907171926139,1.8064230317339,stable,stable,1,0.713815314054498,0.0864187630330778,0.0578929494660191,0.954476085585259,0.34418695334408
90,1.94725239276886,2.7144923210144,-1.06066251239895,-1.61858961361956,1.94725239276886,-0.0382085257589129,-0.000954754124978669,0.0382204525890089,-0.0613485855833169,-0.138951441865171,0.154370813219972,0.00995474768042291,0.134458604150456,0.0473059046214327,15.4664003962439,0.934615908367089,0.749709861325296,0.17628074471218,0.240253405439148,0.13145329746032,0.348057215962207,0.159442474947798,0.0359729739717489,NaN,NaN,NaN,NaN,1.99637079272466,-122.311062912018,1.87015958790009,stable,stable,1,0.528728485662649,0.179636066829899,0.191726043741233,0.89862563945347,0.341576312239858
91,NaN,NaN,NaN,NaN,NaN,NaN,NaN,NaN,NaN,NaN,NaN,NaN,NaN,NaN,NaN,NaN,NaN,NaN,NaN,NaN,NaN,NaN,NaN,NaN,NaN,NaN,NaN,NaN,NaN,NaN,unstable,unstable,0,0,0,0,1,1
