scenario_id,mean_wind_speed,max_wind_speed,wind_velocity_x,wind_velocity_y,wind_velocity,wind_acceleration_x,wind_acceleration_y,wind_acceleration,mean_abs_roll_deg,mean_abs_pitch_deg,mean_abs_vz,max_abs_vz,mean_tag_error,max_tag_error,stability_std_z,stability_std_vz,mean_imu_ang_vel,max_imu_ang_vel,mean_imu_lin_acc,max_imu_lin_acc,wind_speed_cmd,wind_dir_cmd,hover_height_cmd,gt_safe_to_land,label,success,onto_wind_condition,onto_gust,onto_temporal_pattern,onto_drone_state,onto_tag_observation,onto_landing_context
1,2.01978435581678,2.75203418731689,-1.24567767871066,-1.57256614600622,2.01978435581678,-0.0490692387021116,0.01168765338422,0.0504419609891851,1.0218576482702,1.03376925559703,0.176704653806211,0.240486801252854,0.148731653503126,0.40531388709387,0.159519478114655,0.0390862643587402,NaN,NaN,NaN,NaN,2.0716688985117,-127.374480982322,2.31472368639318,stable,stable,1,0.627310129392948,0.174003904935544,0.189513075829604,0.895496318852223,0.333897042887499,0.567798721946478
2,2.30424495855967,3,-1.39155996247734,-1.79777134638053,2.30424495855967,0.0113826136193709,0.00658241575997323,0.0131488436771083,1.84327441500825,1.73918789585146,0.0338479326800329,0.0547112530963038,0.124772415602874,0.472573176977997,0.0159376552883237,0.00666120587747638,NaN,NaN,NaN,NaN,2.42882567996652,-126.095851442396,1.65567109748004,stable,stable,1,0.714622743505964,0.158955505664877,0.104878962432011,0.954928115503229,0.344545593065389,0.793121151407945
3,1.77863190936393,2.58288383483887,-1.08983753100976,-1.38322298792155,1.77863190936393,-0.0557744407456294,0.0192313786263427,0.0589968996164839,0.747500360091179,0.855621990822567,0.176760247540908,0.240250021231641,0.104311356019319,0.47494510489826,0.159485347209489,0.0368781215311571,NaN,NaN,NaN,NaN,1.87319628751653,-127.297520073929,1.68338744767195,stable,stable,1,0.552752486227204,0.191772781494882,0.19935627144581,0.899023914900938,0.353639397324747,0.576015604437524
4,2.23767429818377,3,-0.642009356190717,-2.1226379420006,2.23767429818377,-0.0145325778598649,0.0101079109801383,0.0177021378266987,1.04965559571986,0.798200100888044,0.0629135351958995,0.240320228039526,0.114931431797283,0.416233620649347,0.00195052251896046,0.0088980123154035,NaN,NaN,NaN,NaN,2.46779887999601,-105.553838771394,1.59126547578646,unstable,unstable,0,0.694092082319592,0.174768674843547,0.108963744645409,0.954024366214417,0.348919363645652,0.570069452829223
5,1.84421609362511,2.46175575256348,-1.08440804827291,-1.47131077432116,1.84421609362511,-0.0421437529664629,0.0113983459135441,0.0436579683868027,0.819299022523169,0.942218007078685,0.177680904249655,0.240236285635431,0.16013295104242,0.43925075350657,0.156626713026588,0.040386201316283,NaN,NaN,NaN,NaN,1.88084050141636,-125.058018224367,1.91848152598473,stable,stable,1,0.572725674952809,0.146950384132047,0.172467994323229,0.897319056928301,0.328829799536702,0.57389682104966
6,1.88581870595614,2.72714900970459,-1.03886640033795,-1.55924743826479,1.88581870595614,0.0033794559839282,0.0020994841064778,0.00397851181481983,1.46897596196151,1.5801543581485,0.0280370573135184,0.053637755370847,0.10817338687274,0.445409936821068,0.00233146889951705,0.00714870103653353,NaN,NaN,NaN,NaN,1.9161886291726,-122.783489357006,1.89213328950265,stable,stable,1,0.58469663078875,0.190028712176118,0.117652963355105,0.962024018828091,0.951922939167671,0.93294487092388
7,1.91047377570146,2.76578402519226,-1.07082956319622,-1.56728109428939,1.91047377570146,-0.0416424803684142,0.0141774151775227,0.0439897178025685,0.774838748467245,0.82117764870918,0.177391042272669,0.240288370191672,0.134970646680734,0.406754578136577,0.159526918100198,0.0343550686162071,NaN,NaN,NaN,NaN,1.96867067391655,-123.586570068552,1.72519650545727,stable,stable,1,0.593273297216179,0.200509587732568,0.203699357352593,0.898764350028708,0.340013045919674,0.571954434732464
8,1.91050719241707,2.62943172454834,-1.1184138846042,-1.52586653607697,1.91050719241707,-0.056732556081542,0.00349139939959569,0.0568398873091142,1.15506917237208,1.23498524734358,0.17647660972323,0.240265163417798,0.167910356531659,0.509050748579854,0.156696396757761,0.0405887530313604,NaN,NaN,NaN,NaN,1.96461919299708,-125.030810267647,1.53592969799847,stable,stable,1,0.593583493686503,0.172178665736207,0.187709589002032,0.892982696126334,0.325373174874818,0.570861222637486
9,2.62264164169629,3,-0.825162218915344,-2.45479387549269,2.62264164169629,0.00781957523199251,0.00366728419890903,0.00863682408089678,1.52550670360074,1.66242017260202,0.0334916694275576,0.0553038794328031,0.109489449307464,0.487167786566403,0.0146892396061299,0.00595079176954643,NaN,NaN,NaN,NaN,2.98365709536118,-106.900241715489,1.68064209763646,stable,stable,1,0.813220434821072,0.0864890483664982,0.0605859042357918,0.958206168401771,0.351338022530016,0.78334392748372
10,1.84485009819472,2.83771967887878,-1.10495289391527,-1.44511305622397,1.84485009819472,-0.0749098857895053,0.0111582980787745,0.0757363757055453,0.860853968945611,0.931737385496621,0.177091507026087,0.24029789867803,0.155388506204436,0.415259493580143,0.159465114362435,0.0348260242191986,NaN,NaN,NaN,NaN,1.92399487038037,-126.353098118705,1.70234370060537,stable,stable,1,0.573670712540159,0.237280657866598,0.225905787688022,0.897369600130625,0.330938441686918,0.573322425253418
11,1.87208625653974,2.57628726959229,-1.16249823921368,-1.4519144016406,1.87208625653974,-0.043276637814268,0.0042650034910526,0.0434862924987406,0.777219072216513,0.886030733429966,0.177108283291384,0.24021605390491,0.159938128451817,0.436341649059214,0.159513012436618,0.0382679180788357,NaN,NaN,NaN,NaN,1.90759543141243,-127.844704273722,1.86633662799144,stable,stable,1,0.581361419685623,0.166417714894925,0.18466090770513,0.898377467024229,0.328916387354748,0.573152806597365
12,2.62502683321635,3,-0.789109606738234,-2.46760122016819,2.62502683321635,0.00646857996797904,0.00214553068176514,0.00681511765918501,1.91751459143217,1.83657046429195,0.0272541496805962,0.0666938290311193,0.125153198035221,0.459485059267408,0.000315755902311817,0.0063662248036582,NaN,NaN,NaN,NaN,3,-106.299635778902,1.95285780221924,stable,stable,1,0.813917337709116,0.0856184007638387,0.0538263672525801,0.956876542579012,0.344376356428791,0.783098844748285
13,1.96784229100156,2.74073433876038,-1.03228337403009,-1.66041095248815,1.96784229100156,-0.0522211966436319,-0.00751437275419621,0.0527590672470797,0.977530465953951,0.998659373867117,0.176842588022835,0.240298160594417,0.160514132447416,0.435451201493611,0.156694609781068,0.0442485098428836,NaN,NaN,NaN,NaN,2.02726066309477,-121.319262228342,2.22808834254418,stable,stable,1,0.611262155112915,0.183573206407698,0.195876339851799,0.896051500104274,0.328660385578926,0.569529566881267
14,2.65943519373487,3,-0.728077731074706,-2.52080611466228,2.65943519373487,-0.0258993417898774,-0.00576821146062454,0.02653390601859,1.84869306675102,1.69739258811094,0.063308191853216,0.240280518416643,0.135427563380331,0.500583578804734,0.00188855689772991,0.00853177409143874,NaN,NaN,NaN,NaN,2.96211416560549,-104.652706865072,1.5607820348459,unstable,unstable,0,0.825044034531577,0.0814916308463956,0.0528368004350284,0.940483802499477,0.339809971830964,0.554176583223213
15,1.72629881837741,2.5623791217804,-0.938863500070334,-1.41890318502362,1.72629881837741,-0.0626894264434539,0.00152620256147391,0.0627080017387564,0.967979955199128,0.92736800976914,0.176077937435653,0.240242651899742,0.152893135226494,0.447670252984271,0.156645223074864,0.0413362742202883,NaN,NaN,NaN,NaN,1.78867162897179,-121.8764556945,2.22010986022367,stable,stable,1,0.536615820404235,0.19961453525111,0.204420192738791,0.897069011557423,0.332047495454892,0.577358250105919
16,1.76006855408351,2.7911548614502,-1.005126358935,-1.41439031233408,1.76006855408351,0.00823991850659241,0.00510997459668735,0.00969577729602295,1.79272831703921,1.48262041198662,0.0345479392317284,0.0720485616099984,0.113909485225317,0.497827954720403,0.0145042855193855,0.00375108951474402,NaN,NaN,NaN,NaN,1.79698325918466,-123.928221238646,1.69538029646002,stable,stable,1,0.545847486569461,0.233771978328443,0.148073568667608,0.956991147513219,0.349373562122081,0.811176768016588
17,1.8486240664307,2.67209243774414,-1.01612919883685,-1.52446611177452,1.8486240664307,-0.0552650022257453,0.0110758096490743,0.05636394264416,0.775797338240565,0.867664076614604,0.178066317894748,0.240269973245291,0.142197146979957,0.432316770040333,0.159468510684342,0.0383682606220137,NaN,NaN,NaN,NaN,1.90606506718967,-122.683382350962,1.82139382356378,stable,stable,1,0.574388619255213,0.195613773030288,0.202195252227299,0.898053929935907,0.336801268008908,0.573641438335116
18,1.82861073811849,2.53823280334473,-1.04092686287994,-1.48116054631009,1.82861073811849,-0.0501284731594279,0.0159254284791352,0.0525973677434483,0.737194896736636,0.722651606433562,0.175482936529443,0.240237880903155,0.140717971357435,0.461778322990214,0.156678472480773,0.0415271186210605,NaN,NaN,NaN,NaN,1.87952489310621,-124.36494621675,1.68782655374833,stable,stable,1,0.568096600730746,0.169307815428869,0.186320336323101,0.90078830921037,0.337458679396696,0.574767943457194
19,2.61829445679983,3,-0.782113460840696,-2.46548752829942,2.61829445679983,0.00729859918047157,0.00256792414917621,0.00773716901929269,1.40244652232124,1.28453709415912,0.032458753428851,0.069794964370002,0.0923214128637931,0.5341381590303,0.0123407712545426,0.00562804084848027,NaN,NaN,NaN,NaN,3,-106.031594526481,1.72629874692431,stable,stable,1,0.811851815551729,0.0873022282069097,0.0599126844569252,0.962658609156086,0.358968260949425,0.784168821069581
20,1.86679051117021,2.91443824768066,-1.0020585802026,-1.54325803698879,1.86679051117021,-0.0635297642049888,0.00898698224886447,0.0641622692077118,0.983173840631783,0.966328878736628,0.176583893313058,0.240302180351097,0.146357745376536,0.456386747137238,0.156661081282487,0.0410338929249972,NaN,NaN,NaN,NaN,1.95533603544456,-121.682915799118,1.79283948493902,stable,stable,1,0.580202178077612,0.247483823402932,0.23303885688751,0.896390531977005,0.334952113165984,0.572665048472384
21,1.93691410904839,2.6263735294342,-1.06727393592947,-1.60258421325835,1.93691410904839,-0.0531592623736383,0.00140267074778963,0.0531777647267729,1.10630004983469,1.12651285097051,0.176316337585448,0.240294835594514,0.189995127573477,0.508585330194646,0.156656711272826,0.0427826683295476,NaN,NaN,NaN,NaN,2.01006102178809,-122.843348050567,2.04863340671654,stable,stable,1,0.601684188315292,0.164877626453383,0.184109114820192,0.894298301272378,0.315557721078455,0.570264425764066
22,2.63175039410591,3,-0.741844439402265,-2.49222037616753,2.63175039410591,0.00493834051686992,0.00472866355387147,0.00683721186349169,2.07760760768919,1.67086963749795,0.034307240760886,0.0765867328540168,0.125195029751864,0.518524873264027,0.019586064880906,0.00676002259183327,NaN,NaN,NaN,NaN,3,-105.373889448931,1.57752488947317,stable,stable,1,0.816002157116314,0.0841096501678101,0.0616288978589271,0.953394058407372,0.344357764554727,0.782357569745053
23,1.71166074762539,2.57791638374329,-0.844308340450467,-1.46515093899053,1.71166074762539,-0.0629213087039024,0.00018259938069594,0.0629215736575749,1.10612730174489,0.977844165328555,0.176571975215881,0.240251841613764,0.178697643531888,0.414975617836052,0.156639409095693,0.0400325611728994,NaN,NaN,NaN,NaN,1.75191981509009,-118.497538474994,2.3411180915218,stable,stable,1,0.532083001815881,0.206443139963749,0.208040694103854,0.895339950865054,0.320578825096939,0.577570890792925
24,2.64821673626018,3,-0.620637283567707,-2.54016289732592,2.64821673626018,-0.0244902362986702,0.00438212399979635,0.0248792018504271,1.48403666367862,1.09697986970885,0.0616958853442969,0.240301097499711,0.105394562000837,0.428747341997556,0.00189299194374152,0.00758467855335999,NaN,NaN,NaN,NaN,3,-102.185830974197,2.15355214642847,unstable,unstable,0,0.8215277029505,0.0837124213473703,0.0538268474896907,0.948872641708378,0.353157972444072,0.555828466295418
25,1.75865613116699,2.54159927368164,-0.951289838324187,-1.45745739694234,1.75865613116699,-0.0670385477214824,-0.00803978251622441,0.0675189231513185,0.789423427850412,0.958727939083413,0.176656409297713,0.240237700294401,0.16650090437061,0.403921704550625,0.156724106245793,0.0429464025640411,NaN,NaN,NaN,NaN,1.79680657025774,-122.144595008979,1.76987880672804,stable,stable,1,0.546758842201964,0.188540676310205,0.198396437777238,0.897936320325235,0.325999598057507,0.57635254263071
26,1.84833319028219,2.66796708106995,-1.03132563188461,-1.51232267080106,1.84833319028219,0.00473937045843618,0.000279166333716827,0.00474758530035833,1.18312430783425,1.3866975083558,0.0330263605405944,0.0528563238816114,0.0955245348272216,0.426798867872226,0.0164943790817925,0.0048260095614806,NaN,NaN,NaN,NaN,1.89015622586425,-123.159855511628,1.6835291951716,stable,stable,1,0.573094065977819,0.185288016065645,0.120258557354662,0.963295362602495,0.357544651187902,0.809340392963447
27,1.70378008018546,2.34056258201599,-0.821089485933055,-1.47523284266142,1.70378008018546,-0.053897566215752,0.00483762763319101,0.0541142336645247,0.840257904214161,0.888522322082451,0.177328075126863,0.240225705325174,0.156940075243181,0.402902243508889,0.156659433789057,0.0417697459394362,NaN,NaN,NaN,NaN,1.77620387229689,-117.832865156267,1.67162973888706,stable,stable,1,0.529434490309663,0.153197005750367,0.17673361699101,0.897752689229952,0.330248855447475,0.578343051689336
28,1.71745410338551,2.41910815238953,-0.965623740805816,-1.40605290682321,1.71745410338551,-0.0450805832365959,0.00268180615173595,0.0451602819874626,1.07761042847356,1.15776389746382,0.176868378883871,0.240182160636235,0.154001707315954,0.524873547998904,0.156654923562717,0.0415205383179792,NaN,NaN,NaN,NaN,1.77693740749085,-123.63065316624,1.53401705683153,stable,stable,1,0.533464511962549,0.166151546056938,0.184413715676656,0.894002155139985,0.331554796748465,0.577492759976188
29,2.64051584442457,3,-0.536802025780839,-2.55122094426109,2.64051584442457,-0.0072767574621671,0.00283738056534021,0.0078103730791669,1.54998795991054,1.3959474525206,0.0257748923752368,0.0477784191830161,0.109033747625933,0.444519420548301,0.000573123248445484,0.00551321870809065,NaN,NaN,NaN,NaN,3,-100.208461528465,1.96262710412009,stable,stable,1,0.818742153810129,0.0823158367356534,0.0516490302880876,0.963965918428994,0.351540556610696,0.558641441291665
30,1.63595780990268,2.62649655342102,-0.818499510845676,-1.40412703175956,1.63595780990268,-0.0237275778549681,-0.0459084199334159,0.0516776641465772,0.684191227117256,0.977613818344056,0.175116013268854,0.240230332690904,0.170905899972938,0.33805477641705,0.156899695726075,0.0429315501046987,NaN,NaN,NaN,NaN,1.90894849737311,-119.745808657761,1.52602995074489,stable,stable,1,0.50835273323325,0.2323454557185,0.224751944296923,0.899384953722663,0.32404182223425,0.580834755113997
31,1.89164746375311,2.71209335327148,-0.938791265145411,-1.62141794966539,1.89164746375311,-0.0590418417390885,0.00314958405661883,0.059125789260468,0.831248192971433,0.771211690019212,0.177084620992084,0.240247789516829,0.14247143575875,0.440950849184765,0.159510641455172,0.0348603064397131,NaN,NaN,NaN,NaN,1.95935225919259,-119.13516242978,2.0558027710404,stable,stable,1,0.587790315512875,0.19544005317272,0.200834125397139,0.89886693328046,0.336679361885,0.572316796108035
32,2.62771954774857,3,-0.647625041122479,-2.51104476446713,2.62771954774857,0.00657071021221223,0.00228105337796545,0.0069553890765361,1.70775921492097,1.61477523380395,0.0304164305325085,0.0554525784047145,0.107057294933692,0.428508095958567,0.00536885314877088,0.00526255656381554,NaN,NaN,NaN,NaN,3,-103.01941117063,1.85685288386906,stable,stable,1,0.814755352213841,0.0850382564206044,0.0553227677396685,0.958686156922336,0.95241898002947,0.908280318927682
33,1.87237580049606,2.68759393692017,-0.818473688918927,-1.66424089734857,1.87237580049606,-0.0594611202820288,-0.00189142959020123,0.0594911954081324,0.789987273535078,0.592508993763295,0.177315581291738,0.240222952791487,0.101134184817239,0.365670611620906,0.159463563427435,0.0378545700623228,NaN,NaN,NaN,NaN,1.93692079365451,-115.089103932968,2.01840220032638,stable,stable,1,0.581824626046634,0.194330799853582,0.201236472973268,0.900479738682501,0.355051473414561,0.573178651366611
34,2.66943957710504,3,-0.59179348771,-2.56258311627882,2.66943957710504,-0.0294576122686987,-0.00284057772208846,0.0295942528604494,1.52693432496714,1.28079864469872,0.0638976334584163,0.240181483030707,0.106480574291304,0.504357808108054,0.00189262230711977,0.00853016231938054,NaN,NaN,NaN,NaN,3,-101.157933097739,1.5,unstable,unstable,0,0.828216801469306,0.0798017081757818,0.0518240675823476,0.945990424223417,0.352675300314976,0.554623877952541
35,1.79927859054942,2.82170224189758,-0.814232148897717,-1.57746988179479,1.79927859054942,-0.0708635618014109,-0.00474849685944828,0.0710224796357222,0.990370245107715,0.945264019860773,0.176809662184412,0.240264160883672,0.161830606370261,0.482220249589224,0.156633079605,0.0423135305656856,NaN,NaN,NaN,NaN,1.86137587595629,-115.841095627455,1.7670275961331,stable,stable,1,0.559433554261819,0.243066109486553,0.230841106126121,0.896386613968756,0.328075286057662,0.574738544508832
36,1.97346266150475,2.81433510780334,-0.8880234470315,-1.74925281592847,1.97346266150475,0.00293246050991179,0.0011988420261202,0.00316805095378595,1.68406225046326,1.542248327317,0.025991406543675,0.0511478473586744,0.111329795920527,0.435632971885168,0.000202988389457794,0.00568504834729075,NaN,NaN,NaN,NaN,2.00134863438598,-116.022448666907,2.02032905172981,stable,stable,1,0.611847346255393,0.189777109758712,0.116023773225314,0.961654713617032,0.350520090701988,0.805055229651959
37,1.79902907699144,2.79225659370422,-0.812340304619936,-1.57672602775569,1.79902907699144,-0.0712908341140526,-0.000964937784391963,0.0712973641420572,1.1734318592077,1.0494071420851,0.176750647581794,0.240252533793794,0.15646311972823,0.470009499933448,0.156619213047942,0.0410395433636002,NaN,NaN,NaN,NaN,1.84847057739295,-116.145839673518,2.35757001277256,stable,stable,1,0.55936261903066,0.236547374686421,0.226460434258307,0.894159512627517,0.330460835676342,0.57440777801942
38,1.95316549547676,2.82524681091309,-0.759352950532657,-1.7770007025351,1.95316549547676,-0.0601314802743713,0.0032070158415507,0.0602169400633664,0.947974280642295,0.759181487910401,0.176381743448432,0.240278964388301,0.144271028366367,0.456211812900132,0.156726060884658,0.0394936463321797,NaN,NaN,NaN,NaN,1.9993932608471,-112.620106358339,2.28328916487135,stable,stable,1,0.606886365532606,0.207258068318125,0.208372193989697,0.89839576152287,0.335879542948281,0.570227689174327
39,2.62460553208987,3,-0.630709798532745,-2.51123732459077,2.62460553208987,0.00732807725401118,0.00468546319597957,0.00869794697624877,2.10804638372322,1.96461266774395,0.0159821334927474,0.0763396271443528,0.136309804128446,0.507110667341334,0.000390389292728427,0.00694008108692628,NaN,NaN,NaN,NaN,2.9987372183553,-102.731971335258,2.43789270681831,stable,stable,1,0.813830667043972,0.0860583788920917,0.0543321995373701,0.960009469277813,0.339417864831802,0.783549526526667
40,1.88335388493376,2.86943411827087,-0.297465453550108,-1.83480253208854,1.88335388493376,-0.0644588845937488,-0.024706358727353,0.0690315287722565,1.05066290811098,0.70527328436302,0.176450878603495,0.240300045328846,0.13302885378301,0.386921392749366,0.159481251117788,0.034816789394533,NaN,NaN,NaN,NaN,1.96262077332345,-97.9255988407311,1.91305085870633,stable,stable,1,0.585450440000817,0.234523832775765,0.22425550640673,0.897977919185957,0.340876064985329,0.572279634864032
41,1.88670837554802,2.65675950050354,-0.254320343529913,-1.85119180375555,1.88670837554802,-0.0548671242599689,-0.0221049346384987,0.059152594701595,0.948112381505356,0.766898103714374,0.177517603746236,0.240258126736057,0.127892328074501,0.447842713800289,0.15948312302708,0.0377624576476404,NaN,NaN,NaN,NaN,1.94919332297993,-97.076725643542,2.40152798858257,stable,stable,1,0.58625982362959,0.184106145476951,0.195076878079167,0.897766115743013,0.343158965300222,0.572311724748863
42,2.61262411197027,3,-0.628789229748372,-2.50349184874276,2.61262411197027,0.00755827680255878,0.00219893968341138,0.00787165064998311,1.95182549970773,1.76816416284809,0.0341374334700566,0.0763028972833298,0.118186958058443,0.500280243072895,0.0174523064184894,0.00579470699425867,NaN,NaN,NaN,NaN,2.97766096785849,-102.83550377438,1.65912347007262,stable,stable,1,0.810097146559282,0.0886027107591871,0.0630253732656824,0.953702793059176,0.347472463085136,0.783007381433468
43,1.83173763427605,2.56464815139771,-0.257107343506509,-1.79706923898725,1.83173763427605,-0.0513029055418578,-0.0023381289206132,0.0513561579938199,0.969869216715687,0.543891625318683,0.176623335136361,0.240234449878298,0.11532558880717,0.41321343261132,0.159450651198374,0.0356171982685162,NaN,NaN,NaN,NaN,1.87761184680711,-96.9149867627548,1.50491534041119,stable,stable,1,0.569036976978763,0.174320161984574,0.188410761740189,0.899794497244406,0.348744182752369,0.574538968707798
44,2.4619080224696,3,-0.58553538404812,-2.3584120960296,2.4619080224696,-0.0140532840802282,0.0189007011214104,0.0235527343703545,1.43882866894227,1.4042463477705,0.0622234919590653,0.240470548216556,0.118290876887293,0.402530955109027,0.00193918843729792,0.00938260160801077,NaN,NaN,NaN,NaN,2.70268226585959,-102.84402520654,2.27045713373819,unstable,unstable,0,0.763741050767552,0.125388696245571,0.0795069344052163,0.946549807460581,0.347426276938981,0.561558287537344
45,1.67357367398788,2.33232665061951,-0.213006687244366,-1.64876278276189,1.67357367398788,-0.0360785054286804,-0.00448041137956925,0.0363556411042013,0.909094792342197,0.686715948190041,0.177656799461959,0.240212511094493,0.135625172562497,0.393290667498859,0.159493413726858,0.0359100662121866,NaN,NaN,NaN,NaN,1.74484723470437,-96.8322370152764,1.73986000411749,stable,stable,1,0.519656137228673,0.154884620611221,0.176874939918454,0.898633087307696,0.339722145527779,0.579767594972225
46,1.65264561911424,2.48434972763062,-0.234009015260574,-1.61193573151468,1.65264561911424,0.00440869664406667,0.0052034608237205,0.00682001544304695,2.08582045673407,2.12885010348567,0.0270809169345957,0.0767064082992834,0.135928794448382,0.443869697350472,0.000164897177216817,0.00423359782993054,NaN,NaN,NaN,NaN,1.71876069037497,-96.5690723186371,1.98035642998614,stable,stable,1,0.512479275619086,0.188383760580743,0.114643034102739,0.953344272845261,0.339587202467386,0.814171308035323
47,1.78977999638538,2.50556707382202,-0.129165297462166,-1.77340897643226,1.78977999638538,-0.0371315572529933,-0.0166892896163299,0.0407097645771878,0.864020274103413,0.729923734729337,0.17645166307316,0.24020229355363,0.121612729236603,0.346940652559382,0.156662447525756,0.0388637540049245,NaN,NaN,NaN,NaN,1.8330973949862,-93.5355183886098,1.90332017357692,stable,stable,1,0.555781693386269,0.168515549262395,0.184869358196938,0.899250322679734,0.345949898117065,0.576007277639334
48,1.71459091845013,2.31388378143311,-0.182789757600471,-1.69515117714854,1.71459091845013,-0.0271620321969172,-0.00540607720492753,0.0276947948866209,0.941223013951946,0.665709514025039,0.175927773893385,0.240192891529113,0.149057636040885,0.390649880604626,0.156633839906949,0.0433005534486748,NaN,NaN,NaN,NaN,1.76093856199151,-95.8152911333806,2.30145667441651,stable,stable,1,0.532169396600228,0.139918273233717,0.169311659698392,0.899410214619203,0.333752161759607,0.578702668432735
49,2.62544579784075,3,-0.675672078732283,-2.50138238878713,2.62544579784075,0.00649194670945072,0.00697026897663996,0.00952523079431976,2.07472781827364,1.8738583521837,0.0360917062168414,0.0784848725803483,0.133253172562547,0.47629616663917,0.0267049187629726,0.00462591995669819,NaN,NaN,NaN,NaN,3,-103.690253195533,1.5215961472979,stable,stable,1,0.814110452715835,0.0860209877981222,0.0651635981739433,0.950929541266557,0.340776367749979,0.557145751221258
50,1.68407172735046,2.40839266777039,-0.163859976772638,-1.65993442623784,1.68407172735046,-0.0444658931404422,-0.00527600525837413,0.0447778057106823,0.944852186138868,0.714069873286714,0.176052084874669,0.240187227181039,0.162796353675617,0.371940790972107,0.156641619739848,0.0400014404574196,NaN,NaN,NaN,NaN,1.72627812567413,-94.411640590645,1.89293280460454,stable,stable,1,0.523107050945224,0.171181475974776,0.186873361595173,0.898939569952893,0.327646065033059,0.579324992754107
51,1.60302801602552,2.31233334541321,-0.1407822603868,-1.5818782688584,1.60302801602552,-0.0427601964686814,-0.0299809285075596,0.0522234667196236,0.882149647698631,0.698799526777837,0.177022752151266,0.240159656038103,0.147076487644869,0.39796014471814,0.15946879028326,0.0343629102200035,NaN,NaN,NaN,NaN,1.64198518080473,-93.7945426045898,2.05343064031473,stable,stable,1,0.498157232524702,0.169168001344161,0.184871422426533,0.899066880410623,0.334632672157836,0.581847710873171
52,2.6303559366862,3,-0.648299388875339,-2.5154740262038,2.6303559366862,0.00715729477861992,0.00277923960115284,0.00767795814710371,1.99899428093626,1.7350998469357,0.0340250351100646,0.0690402846148023,0.132904809094411,0.46227850070885,0.0204976312923251,0.00409252976061357,NaN,NaN,NaN,NaN,3,-102.899260755177,1.59859305734832,stable,stable,1,0.815589492729487,0.0845775399059079,0.0613447749359123,0.953648171440259,0.34093119595804,0.782426293506163
53,1.70634040702768,2.60407686233521,-0.145362270774297,-1.67591627143222,1.70634040702768,-0.0699352379974382,-0.0440141219669481,0.0826328049038619,0.938294177574462,0.775089178640927,0.175727526213221,0.240252265424662,0.158433264419207,0.375176956449666,0.15660732935992,0.0420388700820027,NaN,NaN,NaN,NaN,1.76767167051157,-93.7767495596924,1.86178192575781,stable,stable,1,0.530893624959671,0.217140050009901,0.21517414934724,0.898673939094554,0.329585215813686,0.577898953549966
54,2.64380672967659,3,-0.568935912891916,-2.5484509379732,2.64380672967659,-0.0182430859193464,0.00594325240606801,0.0191867775570284,1.81093328787618,1.42932931762975,0.0625654095835568,0.240322486182548,0.128339940644632,0.480847847667265,0.00189467724317147,0.00521026332456934,NaN,NaN,NaN,NaN,3,-101.106544404973,2.19362131314845,unstable,unstable,0,0.820027777676073,0.0836610617082228,0.0529333570086109,0.943258089022104,0.342960026380164,0.555229226031578
55,1.66092264165684,2.38524198532104,-0.149797829529492,-1.64239213121816,1.66092264165684,-0.0371778369437564,-0.00583864222769,0.0376335130286757,0.988249638789685,0.718404735485677,0.176601973434196,0.240174999922459,0.138940343932368,0.414157715774832,0.15948713003159,0.0360208653446176,NaN,NaN,NaN,NaN,1.6954412846166,-94.4207914550518,2.03925286042775,stable,stable,1,0.515764134217622,0.169871329713037,0.185904463219703,0.898289586056453,0.338248736030059,0.580104865576619
56,1.6169217525916,2.30331301689148,-0.0921876695806733,-1.60439893994918,1.6169217525916,-0.00387586536766674,0.00273400173111517,0.00474311056312408,0.870786969712147,0.731265993535505,0.0242538166906471,0.0402002708669307,0.103693649731266,0.259128533085042,0.0119952755062476,0.00684821323421449,NaN,NaN,NaN,NaN,1.73280982852964,-92.1431804697514,2.07893996280407,stable,stable,1,0.501356415883201,0.15530760473738,0.101006055758656,0.975285532657731,0.353913933452771,0.818659868504578
57,1.60944838426551,2.33621096611023,-0.187548302818615,-1.58111011533278,1.60944838426551,-0.0465936420228281,-0.0169553378209407,0.0495827687566324,1.16857284233317,0.910366524800885,0.176774090884297,0.242814167014405,0.135063805700356,0.427478106894246,0.156631549648026,0.042121921660116,NaN,NaN,NaN,NaN,1.65239533729994,-95.8334835366937,2.06727654447322,stable,stable,1,0.500085930393296,0.172611755187111,0.188498137599916,0.895278430958941,0.339971641910953,0.581116993701971
58,1.59247760302356,2.2968852519989,-0.0847097963066282,-1.57391783732603,1.59247760302356,-0.0475722213572016,-0.0158696454297256,0.0501493957184312,1.15597790153769,0.983765350378116,0.176439150270572,0.240191243159774,0.147629102984452,0.457569533886751,0.156623370846662,0.040676377311904,NaN,NaN,NaN,NaN,1.68060545220575,-92.4282145747537,2.11176771602159,stable,stable,1,0.494838209504065,0.167685776901165,0.185013263115261,0.894968156456804,0.334387065340244,0.581612086945183
59,2.5304950217406,3,-0.510650008677193,-2.44584764169073,2.5304950217406,0.00714137597873923,0.00704050233418332,0.0100283559962416,1.61531320834322,1.37176331528135,0.0235609222845032,0.0491051817779403,0.10520644548338,0.400220713929059,0.000280698328177085,0.00423327674542128,NaN,NaN,NaN,NaN,2.78982386220964,-100.41262924442,2.1209303606205,stable,stable,1,0.78468745171283,0.10747715204101,0.0661504193991007,0.964749651886412,0.353241579785164,0.787295863346458
60,1.6557667141869,2.330317735672,-0.0877559217869068,-1.63826419181809,1.6557667141869,-0.0459224213017978,-0.0391890199452568,0.0603709206695537,0.719171112469251,0.575916519132788,0.177759059314533,0.240222740456496,0.116421448751226,0.367285236458785,0.159436130295629,0.0342465980056587,NaN,NaN,NaN,NaN,1.72864210057146,-91.9462754292346,1.98304819396958,stable,stable,1,0.51469633621356,0.162841981956899,0.181018999893447,0.900944781808718,0.348257133888344,0.580272807948516
61,1.59268946388141,2.3672788143158,-0.187515157340267,-1.56740062580531,1.59268946388141,-0.0413894885817404,-0.0166132603986281,0.0445992173264357,1.07449667833365,0.903111492232382,0.177564001573869,0.240189599770172,0.14496193206316,0.438968540985858,0.159507887888667,0.0353822069192248,NaN,NaN,NaN,NaN,1.6541677253945,-95.777639022521,2.36780143713602,stable,stable,1,0.49477438220752,0.18245912702425,0.193234127893272,0.895679649301475,0.335572474638596,0.581809053515863
62,2.60569833755493,3,-0.537681416383835,-2.51706931311747,2.60569833755493,0.00599937138886935,0.00586300193043381,0.00838851886198361,1.84908300929135,1.83838174637672,0.0320295088404168,0.0598571274239909,0.126842738375581,0.445765571371921,0.0100366799031577,0.0066798875842328,NaN,NaN,NaN,NaN,2.96888331606625,-100.576107342626,1.77723147406674,stable,stable,1,0.807962216748808,0.0902557691748373,0.0610432581591582,0.955012308213828,0.343625449610853,0.783419851181454
63,1.5355281395977,2.4038360118866,-0.090494414188709,-1.51194795469716,1.5355281395977,-0.0513180221240442,-0.030942344440436,0.0599246866841577,0.960383549812816,0.66218833106004,0.175450061327398,0.240214183201414,0.151631612360125,0.393702599287169,0.15671610147315,0.0411568021594845,NaN,NaN,NaN,NaN,1.60300708299886,-92.1234906695166,1.61939223746374,stable,stable,1,0.477411965964585,0.206355463823763,0.208430988825167,0.8995261902723,0.332608172284389,0.583975581986947
64,2.58027878257778,3,-0.58023831564676,-2.48351668427153,2.58027878257778,-0.0121387791851758,0.0200837584450932,0.0234671539260157,1.43710566763137,1.19758029782925,0.0626468397803525,0.240418347815799,0.106122281420808,0.387768480787461,0.00193453654129502,0.00886718787199738,NaN,NaN,NaN,NaN,3,-102.201792877698,2.31608678294182,unstable,unstable,0,0.800433989524053,0.098739585473102,0.0633279772556682,0.94797547609549,0.352834541590752,0.55792658578684
65,1.51889762586477,2.16110038757324,-0.144769177300015,-1.50333687229785,1.51889762586477,-0.0276667984826354,-0.0204833320827164,0.0344240995741297,0.896094814169847,0.806796591499404,0.176056328495554,0.240139761029546,0.156335454820319,0.428098706045791,0.156641905600721,0.0423735496152078,NaN,NaN,NaN,NaN,1.55228808798252,-94.2268777224065,2.07727691864173,stable,stable,1,0.471661493008141,0.15080670630633,0.175511211991669,0.898591974707679,0.330517575635414,0.584822201623
66,1.57670596420765,2.21165704727173,-0.120104935873079,-1.55701639163421,1.57670596420765,0.00192260604199463,0.00153057768008464,0.00245745437953333,1.38400476721253,1.34136222601796,0.0346253820804713,0.0525020707002491,0.104772110920085,0.373832136896631,0.0206539789035634,0.00612270937223861,NaN,NaN,NaN,NaN,1.60696450398557,-93.5145725727472,1.61895327661705,stable,stable,1,0.48883618950656,0.143314526992332,0.097394702146484,0.961273711155811,0.353434617368851,0.592905107384981
67,1.68611811131847,2.28920197486877,-0.119657698841933,-1.66482049374669,1.68611811131847,-0.0451650542493314,-0.0184344723172992,0.0487822907924825,0.820147541571556,0.525130203068417,0.177605805850758,0.240215172490247,0.117232801632732,0.373269944591499,0.159500185131635,0.0362858864461775,NaN,NaN,NaN,NaN,1.70472744872138,-93.0615211949791,1.5040788843412,stable,stable,1,0.523834867960551,0.14463728927744,0.17086621253469,0.90062705765245,0.347896532607675,0.579441529941149
68,1.58597095320825,2.21659564971924,-0.133150962162843,-1.56327132423812,1.58597095320825,-0.0410374089432444,-0.0162461783919075,0.0441362350582461,0.952290526562059,0.821974617189846,0.177131510449048,0.240520336963954,0.154405715729492,0.432100070133239,0.156645254153987,0.0407158920232876,NaN,NaN,NaN,NaN,1.6346567991892,-94.1375227104005,2.35966805239194,stable,stable,1,0.49268084097925,0.149982199808984,0.174415211760278,0.897493590074568,0.331375237453559,0.582307598418398
69,2.62290870666504,3,-0.388737730062364,-2.55855722540241,2.62290870666504,0.0048560936188845,0.00624349786620888,0.00790967198060234,2.22969078286824,2.04989360509506,0.0338801796981407,0.0707653552065202,0.130287631134919,0.452213225032283,0.0145392107950809,0.00386484431022059,NaN,NaN,NaN,NaN,2.97762147861884,-97.4745863886534,1.671705396725,stable,stable,1,0.813286258079043,0.0862956475301433,0.0596446579135557,0.949434604245504,0.342094386162258,0.557032238410551
70,1.67836281474756,2.4703311920166,-0.0922072374822386,-1.66429448604571,1.67836281474756,-0.0361812221745222,-0.00147092514048643,0.0362111096048029,0.961164495624137,0.704236947124949,0.176535845831883,0.240184869574924,0.136556876095548,0.372451666066825,0.156655376205446,0.0417251672243126,NaN,NaN,NaN,NaN,1.74106956136438,-91.9626622500687,2.01506269624558,stable,stable,1,0.521137398462522,0.184831588313082,0.195696352716282,0.898646780033887,0.339308055068645,0.579616531107703
71,1.60979767640432,2.36684346199036,-0.187570201769269,-1.58230934189126,1.60979767640432,-0.046882954971174,-0.0164602294728779,0.049688536113765,0.759430003312143,0.556148429595188,0.176887760753661,0.240188071306179,0.111435595357373,0.375540637832432,0.159440707195848,0.0350610460126925,NaN,NaN,NaN,NaN,1.67774962146967,-95.9395937551425,1.58316597947309,stable,stable,1,0.500196678861326,0.179444866711049,0.19127892783546,0.90121943193604,0.350473068730056,0.581994940925275
72,2.6187240588665,3,-0.603374595260426,-2.51652520865058,2.6187240588665,0.00690729384444055,0.00424420509896216,0.00810703306860794,1.78999076345719,1.78557981205501,0.0225094469521465,0.0601251359752134,0.119369549476976,0.456150867664785,0.000245969908167066,0.00284669532495247,NaN,NaN,NaN,NaN,3,-102.28205700878,2.14262925255255,stable,stable,1,0.811993622353549,0.0872733761509488,0.053508507586101,0.960651507716331,0.946946866899122,0.908847321165588
73,1.66929042014946,2.23824834823608,-0.164515030309731,-1.65028208732714,1.66929042014946,-0.0379826434027772,-0.009087987932454,0.0390547401031292,1.00342196178904,0.705614337118776,0.17767718267398,0.240165994554021,0.148351257902694,0.393685739482477,0.159495420022021,0.0350315727296167,NaN,NaN,NaN,NaN,1.730743683828,-94.7490683234343,1.80057905446364,stable,stable,1,0.518391307515406,0.135175569505064,0.16473094876602,0.897733266314448,0.334066107598803,0.579724593340505
74,2.60274454839876,3,-0.573552393812782,-2.50333456939005,2.60274454839876,-0.0198189176641243,0.0153904699662096,0.0250929484747834,1.56174627051338,1.3122191456954,0.0623027974040835,0.240427133150883,0.119125688245699,0.395994064860388,0.00195336188337752,0.00799561972255021,NaN,NaN,NaN,NaN,3,-101.440236798872,2.30057108818419,unstable,unstable,0,0.807436312134693,0.0939828504973232,0.060165369216378,0.946267444456318,0.347055249668578,0.556911792247179
75,1.66296769039971,2.43556904792786,-0.179735599237168,-1.63728842239765,1.66296769039971,-0.045200385232958,-0.0144684973537403,0.0474595853425101,1.03158992725704,0.831170791489357,0.175846285228762,0.240227974740189,0.122955542372059,0.449747490020449,0.156673299993824,0.0386830568362501,NaN,NaN,NaN,NaN,1.72844746755899,-95.0560971705178,2.12400586199934,stable,stable,1,0.51662737434857,0.182536229423292,0.193220881551281,0.897440880309755,0.345353092279085,0.579739139364978
76,1.76859316607316,2.64591932296753,-0.22756153942549,-1.73739854440335,1.76859316607316,0.00566706957236288,0.00761702542382271,0.00949393247527929,1.55102439784907,1.23353896871688,0.0311617209529637,0.051873564145122,0.106148379790323,0.390904384542555,0.00880443231037742,0.00685368513474383,NaN,NaN,NaN,NaN,1.80133462105751,-96.2777836497926,1.78996503168307,stable,stable,1,0.548485406573771,0.199138939588367,0.125888693919761,0.962540427357643,0.352822942315412,0.586735642387951
77,1.68958349536065,2.524338722229,-0.150545538579343,-1.67296464090699,1.68958349536065,-0.0361380348944245,-0.0254706420938188,0.0442121157003604,1.16701733421788,0.941815427497483,0.176719017506785,0.240205735832385,0.134153548755865,0.431469030441204,0.156601670212207,0.0420477330950987,NaN,NaN,NaN,NaN,1.75923009576763,-93.8331549635916,1.72116033914651,stable,stable,1,0.524802499594811,0.195925480590445,0.202446115432658,0.895071090975987,0.340376200552949,0.57857548802242
78,1.77772214380251,2.52508163452148,-0.199840672762974,-1.74810207849535,1.77772214380251,-0.0436863759606897,-0.0163662086185161,0.0466513904307634,1.11998940514513,0.859884324206873,0.176567753191925,0.240207026454929,0.134143082572482,0.437731240391522,0.156705540263083,0.0399815862375481,NaN,NaN,NaN,NaN,1.84421771642335,-95.6415120879709,1.82342140507871,stable,stable,1,0.552182397022164,0.176708640324075,0.190210849609873,0.896159972673415,0.340380852190008,0.575831626894892
79,2.61659604231517,3,-0.398196071008089,-2.55476787996869,2.61659604231517,0.00458084983540111,0.00468776732461866,0.00655433808284687,1.53358434634233,1.43531050845486,0.0322117231577911,0.0498560407419593,0.105886525054967,0.396160126238519,0.00870837494986553,0.00643578105917429,NaN,NaN,NaN,NaN,3,-97.5958361626102,1.7909834981252,stable,stable,1,0.811297707672968,0.0874675191276098,0.0586911843646907,0.960567107419127,0.352939322197792,0.783930993821176
80,1.73676717402984,2.76340985298157,-0.220431758717991,-1.6983705309045,1.73676717402984,-0.0636727155735026,-0.0159258524083926,0.0656341944678082,1.02034196146933,0.791199954941822,0.17657326122629,0.240249359617704,0.160737976892436,0.427627095011122,0.156585670558345,0.0396549694858995,NaN,NaN,NaN,NaN,1.84269174465958,-96.4089816842801,1.57173947515531,stable,stable,1,0.539929288486832,0.243027538416571,0.22983014331317,0.89747982575791,0.328560899158917,0.57702844230453
81,1.84622132372694,2.89252519607544,-0.194961713892817,-1.80900916312574,1.84622132372694,-0.0630961547841745,-0.0264531682774577,0.0684170655645505,1.02045103524991,0.67553454410272,0.176428015196554,0.240270022697657,0.133953585581179,0.453816575330859,0.159459288955553,0.0368492434118463,NaN,NaN,NaN,NaN,1.90149022471625,-95.3637271300002,1.5,stable,stable,1,0.573925008551857,0.247961499965247,0.23304741994754,0.898460391421095,0.340465073075032,0.573569567044659
82,2.60299612447171,3,-0.402756037115946,-2.53863140632746,2.60299612447171,-0.013753413728879,0.0148045749402426,0.0202072221831447,1.02364694740013,1.03418959681758,0.024435451589384,0.0494634506212415,0.140083057230174,0.285436883560628,0.0208647320253701,0.00575414074311822,NaN,NaN,NaN,NaN,2.91783086718893,-97.7855854258006,1.77548200840768,stable,stable,1,0.80740030043717,0.0930305293941087,0.0671839466856424,0.97161355850074,0.337740863453256,0.560791033341575
83,1.69891892647257,2.44520854949951,-0.295819179978762,-1.65537954720936,1.69891892647257,-0.0513036264856825,-0.0149722083320291,0.0534437004044453,1.08344442928462,0.759116018504195,0.176876318692368,0.24025210025866,0.185004682938107,0.394412449309586,0.156688309405451,0.0407932497400411,NaN,NaN,NaN,NaN,1.75027764965131,-99.5200046041142,1.92779732932089,stable,stable,1,0.527911886882599,0.177713176921878,0.19110106377415,0.897084579992618,0.317775696471952,0.578412557131456
84,2.63333926115717,3,-0.452128104097692,-2.56071608238895,2.63333926115717,-0.0231496774648897,-0.00162134560519699,0.0232063855070089,1.83644961657066,1.3420645328843,0.0625531809541001,0.240483464638846,0.121184670884051,0.456575449830851,0.00191773309701804,0.00735601661918119,NaN,NaN,NaN,NaN,2.95681470906161,-98.270421652992,2.11611713044716,unstable,unstable,0,0.81687665328722,0.0867531702492546,0.0555791431046973,0.943749369777232,0.346140146273755,0.555572767732604
85,2.04582629560613,3,-0.445236545089854,-1.96837469615305,2.04582629560613,-0.0761635244375881,-0.0135955303705554,0.077367440831475,1.01660698300837,0.66999697013865,0.177120019489767,0.240307843211471,0.132952138858614,0.418032422124135,0.156682687831658,0.0380949135421901,NaN,NaN,NaN,NaN,2.10680641889481,-101.731697741666,1.67152433758129,stable,stable,1,0.636011391923969,0.228873114307724,0.220813314565561,0.898188102051819,0.340910160507283,0.566884930486023
86,1.98611755371094,2.81472992897034,-0.56559517100678,-1.88409100365821,1.98611755371094,0.00498346736031818,0.00152224111295973,0.00521077392882684,1.35640362765089,1.42203098106038,0.0227885004061323,0.0636704096673115,0.103524010627617,0.472797640166424,0.0002248902668263,0.0054261472207258,NaN,NaN,NaN,NaN,2.01104491577433,-105.279667622794,2.14543744292488,stable,stable,1,0.615818026375397,0.187393092986983,0.114508951465791,0.96677519215706,0.353989328609948,0.805376269784199
87,2.01161352550091,2.75062870979309,-1.14864777150159,-1.63670166518187,2.01161352550091,-0.0451174181657455,-0.0022425902004621,0.0451731184749287,1.16253097568616,1.00710670086028,0.176036097519038,0.240274526015403,0.159188790885827,0.445290328821907,0.156691649282587,0.0435725425537417,NaN,NaN,NaN,NaN,2.06469467336038,-124.238920485483,2.0667189234569,stable,stable,1,0.624654232336365,0.17456015485281,0.190221386854802,0.894934798067616,0.329249426272966,0.568072250558051
88,1.95680181753068,2.68585157394409,-1.10021518340653,-1.59703544350723,1.95680181753068,-0.0582339248699022,-7.69153612002115e-05,0.0582339756647801,0.914820176531875,1.01394896411795,0.177159184215961,0.240284469584554,0.163248829516258,0.445203146804111,0.156683741648908,0.0403813689607454,NaN,NaN,NaN,NaN,2.00959748573364,-123.70580417537,2.41811609751143,stable,stable,1,0.607967356200022,0.174712424064895,0.189148807117106,0.896265793215485,0.327444964659441,0.569824715338442
89,2.62728816707929,3,-0.247594124831023,-2.58157926902912,2.62728816707929,0.00530285869107176,0.00631326012749262,0.00824485074060552,1.52255088550029,1.25434384331142,0.0320726383359027,0.053726902238671,0.108859517040401,0.439976338088237,0.0103105447420893,0.00289264582160178,NaN,NaN,NaN,NaN,3,-94.0907171926139,1.77675453476216,stable,stable,1,0.814651711645194,0.0853717183762709,0.0568573665634352,0.962145222248528,0.351617992426488,0.558790633019242
90,1.93430718597101,2.75567698478699,-1.05964551763447,-1.59706859441717,1.93430718597101,-0.0616576480078757,-0.00334340041617926,0.0617482298062544,1.13551822593361,1.03139943290956,0.176915428292076,0.240291587867739,0.169674714695231,0.447722720369237,0.156676707648193,0.0419713023121452,NaN,NaN,NaN,NaN,1.99637079272466,-122.311062912018,1.57560574228149,stable,stable,1,0.601076019679825,0.196128713531409,0.202573612156802,0.894516504248766,0.324589015691008,0.570231898071648
91,1.89549126835907,2.61786150932312,-1.13365655767487,-1.49712689576986,1.89549126835907,-0.0510028889768394,0.0110071346363848,0.0521771185184398,0.88376486359069,0.907301704113458,0.175154550287889,0.240284644995462,0.157460538316172,0.419211706741631,0.156676208456734,0.0435785450243631,NaN,NaN,NaN,NaN,1.94546366280019,-126.251978914843,2.47978962685813,stable,stable,1,0.588819759290076,0.172099109278624,0.188740079637613,0.898350058966952,0.330017538526146,0.5722359430493
92,2.61784754991531,3,-0.476290453296869,-2.54067329003336,2.61784754991531,0.00506549804420918,0.00291961009886475,0.00584665661427795,1.74743311243768,1.19951526296088,0.0327665944968428,0.0522142356988234,0.107318061604072,0.441428893940542,0.0162541082652567,0.00420004600158462,NaN,NaN,NaN,NaN,3,-99.2513675644137,1.6890335048721,stable,stable,1,0.811669162461414,0.0870561883150054,0.0609850505620168,0.960462108373447,0.352303083731524,0.558886954393019
93,1.72503328323364,2.34577918052673,-1.04748023951612,-1.35621592298209,1.72503328323364,-0.0444983148779284,0.000917727549605362,0.0445077774195765,0.662835677726299,0.747983448110285,0.176970621092005,0.240184013549253,0.125607599357128,0.408593890755138,0.159447297127906,0.0379141327571443,NaN,NaN,NaN,NaN,1.74681180591764,-126.657123786368,1.96616242494821,stable,stable,1,0.535798832608886,0.147827586084534,0.173348974407135,0.90042968203671,0.344174400285721,0.57822198449557
94,2.60775670691395,3,-0.231327438709722,-2.56738478613484,2.60775670691395,-0.010123645610763,0.0112413219297199,0.0151279714165489,1.37332483592135,1.20718091308711,0.0619340468849018,0.240470812290771,0.106782377675408,0.419406023922941,0.00194421029382978,0.00981775337690685,NaN,NaN,NaN,NaN,3,-94.2734617915732,2.42205810252332,unstable,unstable,0,0.808757565143045,0.0910282023707275,0.0590511070234179,0.948757574243911,0.352541165477596,0.557296803662093
95,1.79460560464535,2.69311928749084,-1.14088454795092,-1.352324471239,1.79460560464535,-0.0769507794138587,0.0077869119194095,0.077343768007778,0.63508485624522,0.7796024242025,0.177030957370328,0.240286473816408,0.105384524704634,0.380489365103468,0.159487870899325,0.0362692943866562,NaN,NaN,NaN,NaN,1.86493072097439,-128.583435678336,2.16880567075553,stable,stable,1,0.558132425360239,0.216345269441663,0.213879494164896,0.900369121254175,0.353162433464607,0.575377170097016
96,1.73188917120298,2.44764304161072,-1.05856742991748,-1.35622556918439,1.73188917120298,0.00698722420155056,0.00370352092492601,0.00790805723829176,1.99425030859664,2.03190614413199,0.0251626709701401,0.0810928977951451,0.127853125977861,0.53164213351233,0.000268735996870292,0.00561408162939977,NaN,NaN,NaN,NaN,1.76269102467469,-127.19753908103,2.04884757612479,stable,stable,1,0.537070164408483,0.162494431335428,0.0996575812509609,0.955784578100634,0.343176388454284,0.811942897649328
97,1.7425256233637,2.70494866371155,-1.07752460126799,-1.33866709607791,1.7425256233637,-0.0637962790418365,0.00107771244271974,0.0638053813066975,0.907105412467586,1.10505421131523,0.176816155695612,0.240247823193412,0.165363349497272,0.495605570105218,0.156715789456889,0.0440071056574288,NaN,NaN,NaN,NaN,1.81622668042125,-127.513201967813,1.82740326534132,stable,stable,1,0.541671735473237,0.228242837317826,0.222599748246964,0.895782096536757,0.326505178001212,0.576618637548326
98,1.86862574223758,2.69315218925476,-1.18385746412636,-1.42209826257574,1.86862574223758,-0.0534460417792073,0.0113191447255047,0.0546315148900494,1.1125095994942,1.28942617742606,0.177296590593953,0.240234628706599,0.162941059602904,0.50276951084619,0.156682057510494,0.0412696069939428,NaN,NaN,NaN,NaN,1.91962505408224,-128.853168090004,2.47363306688194,stable,stable,1,0.580548715441086,0.195534228308707,0.201964136805868,0.892479352170079,0.327581751287598,0.572185514692214
99,2.6342649936676,3,-0.153338506126204,-2.59653968376172,2.6342649936676,0.00638011064701645,0.00396659949430934,0.0075126375805324,2.43564371158337,2.0490127678982,0.0287850243021417,0.0770169440340379,0.147647278836032,0.495272444280154,0.000802934627844248,0.00699818814841113,NaN,NaN,NaN,NaN,3,-92.2002194325483,1.94380364978636,stable,stable,1,0.816797442913836,0.0836676933145537,0.053102271513661,0.950370901224431,0.334378987183986,0.781810551731808
100,1.64414416121788,2.23420524597168,-1.04519112277557,-1.25603456031283,1.64414416121788,-0.0348482067871281,0.0128503158969184,0.0371419996086511,1.05233435637595,1.17015194448601,0.176139354437232,0.240195901351016,0.15556439897549,0.430675659474719,0.156657610812222,0.0435114971526924,NaN,NaN,NaN,NaN,1.68546986904653,-128.540481584722,2.0364833756956,stable,stable,1,0.510551336635077,0.139573110664525,0.169191833805126,0.894467930417468,0.330860267122004,0.580085519329888
101,1.60694044544583,2.38114166259766,-1.03297452867129,-1.20882808361226,1.60694044544583,-0.0409596643748645,0.0182928085088008,0.0448589004417317,0.673867997463941,0.992013216714304,0.177278975380097,0.240174402842469,0.141691050049905,0.472617956334841,0.159474164568292,0.0363177614477104,NaN,NaN,NaN,NaN,1.69807149429304,-129.55767099295,1.55187100478659,stable,stable,1,0.499198245765182,0.182419405606811,0.193535508547142,0.898271445627122,0.33702619997782,0.581730121609348
102,2.62328791578611,3,-0.135060092730149,-2.58803354265831,2.62328791578611,0.00401593129064537,0.00445949686596839,0.00600123457538251,2.05934929364348,1.71945115510284,0.0202773467266166,0.0510239894500926,0.130718605660039,0.434879284219897,6.88042501530295e-05,0.00714966505552968,NaN,NaN,NaN,NaN,3,-91.8482151525671,2.24191491183566,stable,stable,1,0.813359282700452,0.085860445286946,0.0541467250409131,0.960170751682256,0.341902841928872,0.783663733884221
103,1.70163858991091,2.39602541923523,-1.06597628479234,-1.30619950603728,1.70163858991091,-0.0521394882153915,0.00740727086204275,0.0526630220646956,0.76355022850261,0.891869252455007,0.176192112951621,0.240233656894634,0.139263667473556,0.368375058941986,0.159450920701845,0.0361983903200594,NaN,NaN,NaN,NaN,1.75398132014352,-128.600052606655,1.8217047383794,stable,stable,1,0.528736766720558,0.1658919239765,0.183565281278863,0.898897076173808,0.33810503667842,0.578609704367834
104,2.62652496796734,3,-0.331770811525182,-2.57404313538633,2.62652496796734,-0.0150152744751754,0.00334106821958465,0.0153824966898346,1.54409097633464,0.965559209426886,0.0632471360791785,0.240365770635136,0.105493694230585,0.444326450821357,0.00190196918721824,0.00785855057877775,NaN,NaN,NaN,NaN,3,-96.2939600424606,2.19452557949473,unstable,unstable,0,0.814581664992638,0.086852006600485,0.0558141783549738,0.948657751929427,0.353113913675295,0.556667407638403
105,1.70302627321814,2.53970193862915,-1.09121407970251,-1.2805120955337,1.70302627321814,-0.0624145336675325,0.00703395858328403,0.0628096376863209,0.74801024399649,0.929670353361729,0.176935849632528,0.240245894869759,0.131136836953625,0.379058940501573,0.159475958338258,0.035171180147419,NaN,NaN,NaN,NaN,1.78074250763471,-129.221424924807,1.73066782736776,stable,stable,1,0.529403702910305,0.199767124959969,0.203527998735481,0.898350299061636,0.341716961353944,0.578305022320145
106,1.86266147633394,2.6619873046875,-1.08546335832132,-1.49761471075901,1.86266147633394,0.00174847220009778,0.00248739549040611,0.00304044262570557,1.51585975033488,1.58413202156465,0.0243570737931718,0.049863334252183,0.108505869267395,0.464301520011489,0.000158122125047525,0.00545233633968961,NaN,NaN,NaN,NaN,1.88415857146299,-124.959215831678,2.07731123981526,stable,stable,1,0.577496001324787,0.180405725860931,0.110296379776467,0.963464384895632,0.351775169214491,0.808929952007542
107,1.57176738769509,2.3791196346283,-0.992251344194262,-1.19028584940313,1.57176738769509,-0.0565421268210465,0.00185922448504914,0.0565726861756901,0.535657517684336,0.75806658381996,0.151524362352954,0.240228173739079,0.155787898484383,0.25145723085923,0.159102095592163,0.0427861633169481,NaN,NaN,NaN,NaN,1.72726488943798,-126.550224489005,1.78357785795294,stable,stable,1,0.488567919529578,0.192025914692181,0.201486196143241,0.914072843740275,0.330760934006941,0.585038464452876
108,1.44882649287843,2.66789817810059,-0.895099597155902,-1.12701692490047,1.44882649287843,-0.0512646171000102,0.0314469772234331,0.0601412781947788,0.525349001963109,0.833457653517908,0.152058330027327,0.240198076482509,0.180521901552908,0.329914092488318,0.159602437834197,0.0365925025587313,NaN,NaN,NaN,NaN,1.72684939224008,-126.925173742408,1.92537234088071,stable,stable,1,0.450539509283524,0.285317030177361,0.255430999488427,0.913294496978985,0.319768043754263,0.58885484115989
109,2.63039259195328,3,-0.312836911316265,-2.57670398265011,2.63039259195328,0.0048414704260526,0.0066393207494976,0.00821708074081369,1.81143736646243,1.75163177826787,0.0304564016147585,0.0511628032902624,0.1202039188311,0.421540248330391,0.0072885025289327,0.0058305934090101,NaN,NaN,NaN,NaN,3,-95.4171668207032,1.83298010936368,stable,stable,1,0.815613435389468,0.0846681316129951,0.056160429210195,0.956776255912597,0.346576036075067,0.782884880235444
110,1.61346658557451,2.3244526386261,-0.931985256931943,-1.30260562899341,1.61346658557451,-0.0465574605164074,0.0027854618140196,0.0466407110500494,0.913866624116089,0.836160725100799,0.17686085827336,0.240189157395483,0.150000757530487,0.364987699939549,0.156589074660222,0.0406533732619394,NaN,NaN,NaN,NaN,1.65985778043302,-125.136897277648,2.41554841233017,stable,stable,1,0.501262924785932,0.168522658962451,0.185491784493426,0.897819355976616,0.333332996653117,0.581419026921945
111,1.54975793191365,2.48011422157288,-0.940040047899703,-1.21507674511629,1.54975793191365,-0.0368365713156409,0.0140522330797325,0.039425857515334,1.05896106407639,1.21169228842306,0.176541216513342,0.24018719251917,0.158685636632381,0.502507742936662,0.156752659556993,0.0413206460250937,NaN,NaN,NaN,NaN,1.59306398738573,-126.486183134521,2.4523082047513,stable,stable,1,0.481344895568589,0.216558239051137,0.21462848158635,0.893888543973691,0.329473050385608,0.583026196302342
112,2.62702110966047,3,-0.246066548245193,-2.58341051377821,2.62702110966047,0.00415982589078977,0.0014130720067044,0.00439328168204778,1.52325295938304,1.38827568714885,0.02967581091025,0.0540725891138777,0.0988545824205948,0.445282249126171,0.0076130961362786,0.00598336995285619,NaN,NaN,NaN,NaN,3,-94.1056534981467,1.85011412298722,stable,stable,1,0.814479053900659,0.0847256853014371,0.0563947803556005,0.96228579803641,0.356064630035291,0.78388780121206
113,1.74764127390725,2.49161028862,-1.0133440563534,-1.40305012629931,1.74764127390725,-0.0534810510268275,0.00197538809593033,0.0535175202813403,0.718601855363268,0.82664376055946,0.177222270635867,0.240230866386378,0.133862223873606,0.364468686716623,0.159359366231919,0.0370222229022648,NaN,NaN,NaN,NaN,1.77528590773906,-124.910768203071,2.07544011066449,stable,stable,1,0.543017537051146,0.177204573695279,0.190611755719046,0.899247649128388,0.340505678278398,0.577152249362349
114,2.64572270115217,3,-0.412291840543461,-2.57983985873796,2.64572270115217,-0.0172426569142969,0.00547632706584451,0.0180914171804271,1.43845701461739,0.98849553474355,0.0631127843341867,0.240427812223585,0.0996287811350897,0.45810757050052,0.00190831518628986,0.0102497650808883,NaN,NaN,NaN,NaN,2.9979851142919,-97.9705526263991,2.09725024701656,unstable,unstable,0,0.820596170424715,0.0830291520571743,0.0543928186192413,0.949374694945071,0.355720541717738,0.556103616653658
115,1.84097249491685,2.58506298065186,-1.04141251061269,-1.49618155282898,1.84097249491685,-0.0549567396254435,0.00233607034774191,0.055006367403496,0.871717915781546,0.790458065224667,0.17774837836047,0.24021342875481,0.123015952687478,0.409295075801806,0.156676998816061,0.039453782555808,NaN,NaN,NaN,NaN,1.89315516909655,-124.179562229341,1.91766073140755,stable,stable,1,0.571984955330305,0.177504859981017,0.190483967704931,0.898065856683287,0.34532624325001,0.573915660988134
116,1.65394841531912,2.42998552322388,-1.00622770160673,-1.29911789466723,1.65394841531912,0.00436848270975014,0.001707594505268,0.00469036461054015,1.62447980791587,1.47141282727804,0.0265555149359661,0.0543966738824053,0.112088705156942,0.452984675590678,0.000396281243112412,0.00614655316640722,NaN,NaN,NaN,NaN,1.69700248239393,-126.66944677606,1.9587713845023,stable,stable,1,0.512833450589841,0.175468249457168,0.10769218491357,0.962397371826922,0.350182797708026,0.815524200895482
117,1.62167932346565,2.52196359634399,-0.962626066355557,-1.27765638949143,1.62167932346565,-0.0658046045675357,-0.0029323985956314,0.0658699092440046,0.815390301099071,0.878217903523513,0.176928319503566,0.240252027432976,0.155691320204303,0.384487306877632,0.15962816095789,0.0369016492196529,NaN,NaN,NaN,NaN,1.6721231422542,-125.43586516234,1.56692433058096,stable,stable,1,0.504257554823377,0.214640111425696,0.213148697704455,0.898228918640468,0.330803857686977,0.580877036371667
118,1.73010004134405,2.56427597999573,-1.0617543069067,-1.34528922131518,1.73010004134405,-0.0494411896652961,0.0141436568688956,0.0514244520159898,0.803612654518906,0.974507230517446,0.177446651920558,0.2402235703373,0.143933504519272,0.457092469448287,0.159511017258047,0.0382276809595058,NaN,NaN,NaN,NaN,1.78141492798702,-127.597402747289,1.95986607740185,stable,stable,1,0.537530916697029,0.197117402399558,0.203065201782122,0.897305732085864,0.33602955354699,0.577467680558918
119,2.57555812120438,3,-0.364937975825218,-2.51681095045925,2.57555812120438,0.00666528736296563,0.00598512622928292,0.00895811317250233,1.92490672298776,1.55030646356035,0.0321102914332498,0.0736933264562755,0.120500370003396,0.487365042942117,0.0118079399838818,0.00572174286152015,NaN,NaN,NaN,NaN,2.88139783872518,-96.8469577847742,1.74419350858281,stable,stable,1,0.798632040214048,0.0971417434773074,0.0656136531803797,0.95663960781764,0.346444279998491,0.559633535252985
120,1.69150193937782,2.6481294631958,-1.00456381380235,-1.33231767519232,1.69150193937782,-0.0626849947521142,0.0123864718176669,0.063897051975521,0.829803983186271,0.774113991158816,0.177994484432644,0.24025035396527,0.117628987857503,0.386654074104623,0.159507747736125,0.0370829278546115,NaN,NaN,NaN,NaN,1.76744363452008,-125.864521808831,2.22352441696989,stable,stable,1,0.525856532419886,0.226955652387892,0.220550424797942,0.89840054512811,0.34772044984111,0.578668070329866
121,1.7234754870538,2.40168213844299,-0.989496042444122,-1.39712751080071,1.7234754870538,-0.0426786074375944,0.00465903314689641,0.0429321572096741,1.05805330015288,1.16415989553494,0.176084137531507,0.240216358167202,0.163741788074998,0.494503026854863,0.156773352893965,0.0431693103673295,NaN,NaN,NaN,NaN,1.76448514358837,-124.664357217421,2.19588286025034,stable,stable,1,0.53527915132157,0.160467392051009,0.181655412003922,0.8944976846967,0.327225871966668,0.577410386624087
122,2.63209858814875,3,-0.390643252307527,-2.57137250599488,2.63209858814875,0.0044990732525614,0.00173830012192559,0.00482320924756535,1.74773817763666,1.37129041195788,0.0251240286536731,0.0528253749537512,0.107902175380144,0.418955090866263,0.000229110928710412,0.0075505955811217,NaN,NaN,NaN,NaN,3,-97.1526305433791,2.05081574906561,stable,stable,1,0.816063103875223,0.0836620726952509,0.0530447418169853,0.962931332469206,0.352043477608825,0.783812089593714
123,1.60565667249718,2.20767045021057,-0.916568953035792,-1.29762616921537,1.60565667249718,-0.0508027833463802,0.00752060784006537,0.0513564245058327,0.730491809844884,0.731617061079528,0.177355159575561,0.240184349842724,0.152860637144143,0.382567975525845,0.159598038110252,0.0348530327482531,NaN,NaN,NaN,NaN,1.66518818535526,-124.488998271363,2.26009401838893,stable,stable,1,0.49895188504593,0.144868444478248,0.170527358159557,0.899834421940671,0.332061939047047,0.58189258400609
124,2.67320413312109,3,-0.565589460254247,-2.57339705125475,2.67320413312109,-0.0317302846774127,-0.00719867339825496,0.0325366234327472,1.34742567173278,1.18775811816238,0.0629638667242746,0.24024956867695,0.0934442211099126,0.401326936087613,0.00189281022054953,0.00765331296923806,NaN,NaN,NaN,NaN,3,-100.530616564359,1.63454347384515,unstable,unstable,0,0.829452469147636,0.0794941176770909,0.0513207424910702,0.948598765431544,0.358469235062261,0.554841289578223
125,1.583573343397,2.22842264175415,-0.828969294209552,-1.33221703862868,1.583573343397,-0.0421929530033877,0.0130737417055232,0.0441720274079515,0.855962427987859,0.873789951375545,0.176429774465209,0.240153759316323,0.159192751076678,0.446498800532429,0.159410850250987,0.0379559115069276,NaN,NaN,NaN,NaN,1.59718321662841,-120.692341177793,2.4626498338623,stable,stable,1,0.491938417092588,0.15318929715515,0.176564994710189,0.898194201215255,0.329247666188143,0.582489986042247
126,1.56265066921711,2.30355620384216,-0.863941985215132,-1.28348594651633,1.56265066921711,0.00285627075351832,-0.00051900832213478,0.00290304189701927,2.29799266101961,2.00419634521084,0.0340521524225421,0.0731444078393368,0.143700524538704,0.506019253875824,0.0177086396594386,0.00584008363821508,NaN,NaN,NaN,NaN,1.57811714801433,-123.111297136965,1.64897614838235,stable,stable,1,0.484489445101568,0.167235969638424,0.110335755075893,0.949171010168347,0.336133100205021,0.591538701542498
127,1.46078297516116,2.2935106754303,-0.742029657099312,-1.23336104691445,1.46078297516116,-0.0541019557876541,0.00992459739781507,0.0550047202843356,0.708153519688346,0.90265511724412,0.177283942640512,0.240169284688827,0.13411597792411,0.437627375635019,0.159498461404085,0.0360178722430095,NaN,NaN,NaN,NaN,1.53181850141805,-119.504479623187,1.82261006846713,stable,stable,1,0.45412616577326,0.197447931279352,0.20245437192446,0.898701675103846,0.340392898700396,0.586367221967864
128,1.62909578303902,2.28942847251892,-0.872782243241316,-1.36384659146408,1.62909578303902,-0.0320854356125699,-0.000593959856320591,0.0320909327810721,0.748130421977661,0.717424984736899,0.17568123447038,0.240171832167121,0.135261015312824,0.453814296025471,0.159564698053004,0.0370824995242313,NaN,NaN,NaN,NaN,1.67347133841587,-121.814224359451,2.08499776004044,stable,stable,1,0.505768481173653,0.154458192809509,0.177077104546357,0.900644304569196,0.339883993194301,0.581589441412943
129,2.62258161981901,3,-0.520878725845521,-2.53820015886783,2.62258161981901,0.00409231320363845,0.00453567868131733,0.00610896132389378,2.23485177489282,2.23282652930193,0.0144615345200443,0.079297860214933,0.140519033475757,0.487748199049534,0.000241680805398976,0.00652561122180947,NaN,NaN,NaN,NaN,2.98812679975473,-100.15154225882,2.47529465981255,stable,stable,1,0.813142844574782,0.0860391117834377,0.0541038302965545,0.957666046064162,0.337547096232997,0.783309097442338
130,1.63527364065858,2.48308873176575,-0.924229983113208,-1.3211751538631,1.63527364065858,-0.0584699132070672,0.00858276969615847,0.0590964862415632,0.901217634859156,0.879104692698701,0.17598921768096,0.240218843065257,0.153799919959498,0.38691528236155,0.156762243458144,0.0410713348847601,NaN,NaN,NaN,NaN,1.67291748571223,-123.514973806059,1.69350111500154,stable,stable,1,0.508313746616463,0.201592751310066,0.205562789856845,0.898017144300137,0.331644480018001,0.580521989814389
131,1.50729705443999,2.22793054580688,-0.748750607498196,-1.29264802507445,1.50729705443999,-0.0431065986606969,0.00241233038019266,0.0431740452813678,0.674814615328226,0.769599820059049,0.17593309021753,0.240200352544735,0.14852219366148,0.459571539123585,0.159563647795512,0.0384534334805181,NaN,NaN,NaN,NaN,1.54515709711904,-119.107877075441,2.19235491509711,stable,stable,1,0.468269481266294,0.17005777719247,0.186934909833675,0.900684484327478,0.333990136150453,0.585359972587398
132,2.62641488194466,3,-0.463497693264389,-2.5543055527477,2.62641488194466,0.00247490261447969,0.00488915910445983,0.00547987405876092,1.85161556257035,1.62516963587168,0.0269087082547149,0.0709882587136863,0.112946853853639,0.495366603976064,0.00104541704763123,0.00416926207462914,NaN,NaN,NaN,NaN,3,-98.8062245222683,1.97278994343319,stable,stable,1,0.814316477130881,0.0850612951398918,0.0530175021827474,0.959228047884884,0.349801398287272,0.783429825723503
133,1.57489985382402,2.06743836402893,-0.850862724033828,-1.31138814934153,1.57489985382402,0.0114698562479286,-0.0147376710309572,0.0186750247594177,0.6195434791536,0.851530582774126,0.169305613849639,0.240171116238695,0.163938267129417,0.327044092013315,0.159997623570808,0.0355848916327379,NaN,NaN,NaN,NaN,1.68330103474598,-120.509023497779,2.30573324459427,stable,stable,1,0.488654705263166,0.114244919335331,0.152596967115281,0.903788754017177,0.327138547942481,0.584057254920006
134,2.57850170975,3,-0.599935944617334,-2.47629552262344,2.57850170975,-0.018466206655538,0.00960191921469646,0.0208134005114636,1.40892026301513,1.01441836119713,0.0623267832501534,0.240401457742829,0.0956943037832215,0.393568726996482,0.00194262315740534,0.0074852826464665,NaN,NaN,NaN,NaN,3,-102.269542710179,2.25850234232469,unstable,unstable,0,0.799821176034434,0.0986529054000182,0.0627770522723203,0.949796090613256,0.357469198318568,0.558303873516163
135,1.65452016048691,2.40981340408325,-0.850223913755991,-1.40623519024188,1.65452016048691,-0.0379079264335481,-0.00173785342409218,0.0379477406575797,0.744453790821604,0.889668004456077,0.176949036462062,0.240189870433078,0.151263638198042,0.421257780815128,0.159513080403223,0.0382395776385835,NaN,NaN,NaN,NaN,1.71044333906111,-120.370167332204,1.59959055792991,stable,stable,1,0.513786697032952,0.1768980655964,0.190938842718757,0.898685953377501,0.332771716356426,0.580366902329293
136,1.62725209375223,2.54831886291504,-0.758190644515519,-1.41314280742575,1.62725209375223,0.00582877488189898,0.00678094871254674,0.00894180530240095,1.87712342877094,1.88088563913474,0.0290355557401438,0.0542238881104663,0.123210998033333,0.354154757444043,0.00731956783049948,0.00470619440254451,NaN,NaN,NaN,NaN,1.66149639163359,-116.91481150861,1.88126492858065,stable,stable,1,0.504656791186913,0.20887935403374,0.130292097097351,0.955955008024955,0.34523955642963,0.815351076564004
137,1.47583202885933,2.39291143417358,-0.709323158306818,-1.2830125119159,1.47583202885933,-0.0293713152232122,0.0103056014474774,0.0311268305346938,0.823158345770443,0.952960224831728,0.176129555185298,0.240173312523613,0.145592210429884,0.432464067628937,0.156722438357146,0.0386043231575287,NaN,NaN,NaN,NaN,1.50463962214456,-118.009747287404,1.51204979675713,stable,stable,1,0.458234221658868,0.212049451793735,0.210922023817508,0.897980005066906,0.335292350920052,0.586187740287751
138,1.57827260340152,2.43205451965332,-0.722154108452827,-1.38250172433751,1.57827260340152,-0.0552196748014461,-0.0036587768843882,0.055340754724409,0.867740155319583,0.774426885851733,0.176280170672229,0.240209449496282,0.116787511548597,0.417376789859824,0.156630612442421,0.0414956780264771,NaN,NaN,NaN,NaN,1.62198882751374,-116.427624599585,2.18684144816301,stable,stable,1,0.490555791331375,0.202246736189463,0.206050984707816,0.898957173626111,0.348094439311735,0.58258125322569
139,2.62461833397547,3,-0.515322023809389,-2.54096675673312,2.62461833397547,0.00462041554743489,0.00414910304726502,0.00620993525954997,2.28892686940038,2.037109641825,0.0308545539246005,0.0755297963534131,0.14493206156228,0.481635582474029,0.00900853150573846,0.00459647697914795,NaN,NaN,NaN,NaN,3,-100.33835635475,1.81676719901589,stable,stable,1,0.813776582021786,0.0855993629864359,0.0570348557464253,0.950582436163786,0.335585750416765,0.782178595703323
140,1.54987223780885,2.35526466369629,-0.74662191461232,-1.34218128226019,1.54987223780885,-0.0422445463597693,0.00849501964906901,0.0430902199574424,0.785883049378887,0.82755132540557,0.176998490793718,0.24018245407019,0.156946903818076,0.408486805243753,0.156647738705791,0.0404870442515506,NaN,NaN,NaN,NaN,1.62484937329115,-117.662804067615,2.16652157707576,stable,stable,1,0.481465832186417,0.189113169483538,0.197811680438715,0.898823770229835,0.3302458205253,0.583698638956432
141,1.55632034167141,2.16289901733398,-0.783074926729683,-1.33346731251936,1.55632034167141,-0.0279122637757236,0.0157692804176691,0.0320587690652129,0.908372467402949,0.844535612800637,0.176756644958391,0.240187734377678,0.13827965067871,0.461331641870297,0.159521315079132,0.0369133570998,NaN,NaN,NaN,NaN,1.58700801541868,-119.377240163094,1.72000745867542,stable,stable,1,0.483207343862991,0.142357643019369,0.169735987014395,0.897848828319205,0.338542377476129,0.583535884684919
142,2.61520844618479,3,-0.609617641275229,-2.50846503845039,2.61520844618479,0.00724421077514743,0.00262922293128186,0.00770658179591578,2.27480463065639,2.05207767432012,0.0342862172098875,0.07830653808348,0.140966390860213,0.47315158014397,0.0233968230444441,0.00820394302500164,NaN,NaN,NaN,NaN,3,-102.460692774955,1.58829304377756,stable,stable,1,0.810894438559191,0.0879909729376726,0.066176423791448,0.948859958998812,0.337348270728794,0.557199854167387
143,1.47903609802934,2.13897657394409,-0.653058389921543,-1.31562272748273,1.47903609802934,-0.0383500845231178,-0.00968978546482577,0.0395552894728963,0.90142519217305,0.840212708439166,0.177721498010479,0.240150210844739,0.12376151790152,0.449376088593582,0.15951556658243,0.0378521394123178,NaN,NaN,NaN,NaN,1.50542716708844,-115.316950545559,2.32377623433377,stable,stable,1,0.459424147143462,0.155738410150851,0.178103267792231,0.897454953204236,0.344994880932658,0.585857352228906
144,2.66581662476211,3,-0.579648908971331,-2.56144388743693,2.66581662476211,-0.026913134180374,-0.00556854172660571,0.0274831848294874,1.83585761895293,1.4612705127441,0.0629495366108408,0.240163422431954,0.120356284163635,0.49714776806791,0.00189255225315241,0.00845469645693556,NaN,NaN,NaN,NaN,3,-100.955060334027,1.5,unstable,unstable,0,0.827044427988941,0.080229843313932,0.0520534753983429,0.942619224945532,0.346508318149496,0.554272887702545
145,1.6459038719839,2.42570996284485,-0.749769688885928,-1.45323504539503,1.6459038719839,-0.0391502368637855,0.00381283843339179,0.0393354647031106,1.05192382794303,1.06166515421171,0.176467678832183,0.240222763843336,0.145444185833808,0.492251964390426,0.156794455508146,0.0390995302615158,NaN,NaN,NaN,NaN,1.68254359450145,-116.590495520199,2.24564400502983,stable,stable,1,0.511148027824748,0.182667872305951,0.193505159058045,0.895159390009835,0.335358139629419,0.580093662029694
146,1.74388377527396,2.53144145011902,-0.826262432955343,-1.51713020424072,1.74388377527396,0.00480356890457789,0.00294753774187909,0.00563580100436746,1.95171242558149,1.77615922350032,0.0183145846579645,0.049842474971893,0.127184929241226,0.406315355174721,0.000218000893245362,0.00935510798452086,NaN,NaN,NaN,NaN,1.779143412243,-117.297381887505,2.32104113225966,stable,stable,1,0.540735472358363,0.178233707024272,0.110438970949367,0.961552287571089,0.343473364781677,0.812457993921683
147,1.47718760918598,2.02592921257019,-0.733609979306415,-1.27151306292975,1.47718760918598,-0.0324325419443363,-0.00350093332890459,0.0326209489614353,1.11294774721082,1.17202606190885,0.176012743061322,0.240147866775422,0.15453226172646,0.455181108538904,0.156650628017345,0.040230329662193,NaN,NaN,NaN,NaN,1.48754464037965,-118.732441752547,1.99352424800649,stable,stable,1,0.45868931432342,0.129447368071044,0.161920132969921,0.894040262826256,0.33131899478824,0.585526575518569
148,1.69982519198437,2.3695981502533,-0.768684758423755,-1.49867714822135,1.69982519198437,-0.048381203303447,0.00708195192237942,0.048896777768278,0.911628783396596,1.07893209522304,0.176763532028157,0.240193515695952,0.144992810751999,0.465299554890792,0.156794091181886,0.0428972282493739,NaN,NaN,NaN,NaN,1.75445964810256,-115.915142708198,2.42565930927687,stable,stable,1,0.528086734329748,0.159663324868026,0.181083249759002,0.895978112796767,0.335558750776889,0.578296704569078
149,2.56797040104866,3,-0.607980453856176,-2.46232945203462,2.56797040104866,0.00416376232745008,0.0055517924892454,0.00693969138817672,2.31899576746266,2.19983163225132,0.02278604564154,0.0786682347548646,0.140974141471486,0.489655335707281,0.000148979989643033,0.00575401800012507,NaN,NaN,NaN,NaN,2.89228411426449,-102.374592577792,2.14964715045121,stable,stable,1,0.796232750457476,0.0984789365185505,0.0612459454217242,0.953101904752906,0.337344826012673,0.784384803079561
150,1.53324897597436,2.25285863876343,-0.653802256710191,-1.37525153168346,1.53324897597436,-0.0410252058647968,-0.00164324482229417,0.0410581023647581,0.815916446536487,0.837482229471806,0.177469652170172,0.24015475968458,0.148567545626567,0.424656940048976,0.159518431760963,0.0367888008478686,NaN,NaN,NaN,NaN,1.57055207434036,-114.528428258895,2.39777675461783,stable,stable,1,0.476265204940563,0.169439492894412,0.185938522282159,0.898274184317706,0.333969979721526,0.584192019137106
151,1.47627468417291,2.33151888847351,-0.652930614545165,-1.30837874693157,1.47627468417291,-0.0394316400332586,0.00183951966077405,0.0394745242947253,0.747922109165318,0.830364763635696,0.177741712647665,0.240160934423187,0.145936082359498,0.434473388899232,0.159677410645521,0.0376152595880999,NaN,NaN,NaN,NaN,1.53043490962982,-115.371127707452,1.57139969316385,stable,stable,1,0.458566224327145,0.199666942088335,0.204446179531531,0.898728318247017,0.335139518951334,0.586139516326275
152,2.6234552637736,3,-0.651779008979961,-2.50846088266517,2.6234552637736,0.00796524822330665,0.00142779395236683,0.00809220457164208,2.9745166844439,2.54357378960597,0.0244962226102905,0.0771280873910084,0.193114120127773,0.502717672745473,8.50441513408652e-09,0.00570894478940161,NaN,NaN,NaN,NaN,3,-103.235441300153,2.15147320432307,stable,stable,1,0.813459949876488,0.0862061364890744,0.0537996655966034,0.944395463541606,0.314171502165434,0.781255409878595
153,1.4828666991928,2.1400830745697,-0.708300404020352,-1.28828399307147,1.4828666991928,-0.0444710224020806,0.00331383223025132,0.0445943193415552,0.742486423704333,0.597646456176388,0.177361841345766,0.240139576203534,0.09837606030854,0.359369462419498,0.159541266927894,0.034387811886897,NaN,NaN,NaN,NaN,1.53053947457772,-117.277382087191,2.47619729854564,stable,stable,1,0.460729210867737,0.156049309672422,0.177041474417146,0.90078946384234,0.356277306529538,0.586144851264108
154,2.67167292753461,3,-0.671863362272969,-2.54698178616519,2.67167292753461,-0.0314043447387136,-0.00279994122157806,0.0315289159235179,1.82953403297173,1.49069413780581,0.0639241526619513,0.240312388090374,0.126227905472484,0.49256727114414,0.00189167158778614,0.00996759320934265,NaN,NaN,NaN,NaN,3,-102.931426400997,1.61311016830725,unstable,unstable,0,0.828954282240611,0.0796538925573578,0.0522576578111715,0.941950416612915,0.343898708678896,0.553911436318401
155,1.63367819461693,2.31188154220581,-0.767577142631156,-1.42493223155094,1.63367819461693,-0.0503702298556242,0.00564922798287127,0.0506860319270593,0.889510642039625,0.891626887481571,0.176754735037427,0.240188604388679,0.161249612144617,0.437179912677543,0.159468495907217,0.0363252759894831,NaN,NaN,NaN,NaN,1.68981233095603,-117.495671617653,2.46909531118951,stable,stable,1,0.507622914409546,0.161888192394126,0.181216993775253,0.89762798046362,0.328333505713503,0.580662650185769
156,1.62104017873605,2.37198138237,-0.703524541115685,-1.44775648183962,1.62104017873605,0.00611102350064278,0.00692518513937429,0.00923595135543809,1.75248619768011,1.71672889788447,0.0288229659528471,0.0728843781104088,0.11550032319898,0.493561082151571,0.00605688954820667,0.00428432732417543,NaN,NaN,NaN,NaN,1.64682358488304,-115.230680905002,1.87644377382023,stable,stable,1,0.502737960939803,0.170655028566134,0.106642905258786,0.958330398415569,0.348666523022676,0.815904124804693
157,1.62827554527594,2.20425224304199,-0.710037565385987,-1.44931231126355,1.62827554527594,-0.04654680286742,3.70974279156346e-05,0.0465468176505937,0.899242349806258,0.82889267483952,0.176910998409111,0.240199183475173,0.122593408106931,0.438503334537818,0.156643517351109,0.0393521142176842,NaN,NaN,NaN,NaN,1.69535374865113,-115.407012304463,2.3488646236779,stable,stable,1,0.505851511447389,0.138128340233304,0.166806204900441,0.897966297030371,0.345514040841364,0.580961420024202
158,1.59673585778191,2.340336561203,-0.716584459246493,-1.41486949671186,1.59673585778191,-0.026039386083591,-0.0532632820604501,0.0592876618147602,0.880494292346718,0.938617032877012,0.176970007527278,0.240216460701458,0.186921929790078,0.445784612331234,0.156810101160926,0.0394444660028895,NaN,NaN,NaN,NaN,1.65925020896733,-117.23842078182,2.24309725416731,stable,stable,1,0.49637149468807,0.178179562935785,0.190944558238085,0.897221978681032,0.316923586759965,0.581651847342484
159,2.53279642835509,3,-0.737139691994173,-2.39378980185922,2.53279642835509,0.00372569220812519,0.0148580081533249,0.0153180021123498,1.61701883389231,1.43754618644108,0.0265582180385254,0.0464710450771597,0.123546020527213,0.407227525931179,0.00915266039712754,0.00624072444644472,NaN,NaN,NaN,NaN,2.88835322200788,-105.56852442763,1.98967770317189,stable,stable,1,0.785524312839365,0.10792910400737,0.0710946658139736,0.962720737249546,0.345090657543461,0.786824161628926
160,1.51799666394993,2.27533268928528,-0.663969436780498,-1.34977359481304,1.51799666394993,-0.045903370033342,-0.00071760634029503,0.0459089788524811,0.778279056282587,0.564852751140169,0.176121070588608,0.240171402626942,0.105375571758726,0.378127327021018,0.159535057458831,0.0370624969392955,NaN,NaN,NaN,NaN,1.56544004446909,-115.546181583882,1.63966701632348,stable,stable,1,0.471650175331035,0.178817251823409,0.191672092690037,0.901386286218803,0.353166412551677,0.585069644224529
161,1.65104497046698,2.66377449035645,-0.780136270228053,-1.42954003756836,1.65104497046698,-0.056317982192745,0.00608455295161915,0.0566457138968466,0.925819844433624,0.877942172908043,0.175600272317602,0.240198235787535,0.148057985908245,0.461541290449706,0.159114849784452,0.0361571534217928,NaN,NaN,NaN,NaN,1.70136515468512,-117.053321105748,1.60831925918942,stable,stable,1,0.513145674169023,0.238249189522886,0.226815280518786,0.898027447990657,0.334196450707447,0.580053855665227
162,2.57456228454908,3,-0.717513358094481,-2.44146182382144,2.57456228454908,0.00816806353247573,0.00546074008508849,0.0098253215798493,1.64646139855696,1.3394764251598,0.0322218264156943,0.0577102511283499,0.114253306002019,0.444735349928051,0.0159243666185273,0.00518483227646856,NaN,NaN,NaN,NaN,2.85921158454158,-105.062668776886,1.70818322217852,stable,stable,1,0.798343565713744,0.0975247949327633,0.0674777667896385,0.960428146748664,0.349220752887991,0.560219004636807
163,1.67795591735515,2.50596404075623,-0.770389634481417,-1.46293364300975,1.67795591735515,-0.0679385175903853,0.00184055079387076,0.067963444583128,0.929146576903592,0.752540936927086,0.176042023873018,0.240207600088044,0.122616862877216,0.360876907183717,0.156843734984471,0.0393800707949946,NaN,NaN,NaN,NaN,1.71874998102098,-116.787170824054,1.50131728729064,stable,stable,1,0.521752148087038,0.198761792605481,0.203285427966688,0.89876572902625,0.345503616499015,0.57909193175969
164,2.42219930130119,3,-0.714870186392337,-2.28243614623901,2.42219930130119,-0.00609126743570125,0.0179458201565449,0.0189514115586224,1.8256618481855,1.76863853576317,0.0627812897333139,0.240445759795161,0.145894772347612,0.520992023793401,0.00193517045555424,0.00813949752389039,NaN,NaN,NaN,NaN,2.64390369362176,-106.697557678757,2.41119185608162,unstable,unstable,0,0.751323983006405,0.133479582659645,0.083907642635226,0.940368423545175,0.335157878956617,0.562002136537211
165,1.59744356319207,2.47190356254578,-0.681264775777442,-1.42183095225988,1.59744356319207,-0.0602078428949811,-0.0132127162279384,0.0616405728087171,0.831996491362785,0.875868582085822,0.177902784398923,0.240191212095773,0.148825945040536,0.404788932051242,0.159484347004273,0.0366881718985176,NaN,NaN,NaN,NaN,1.65443912380199,-114.70021335318,1.59942718938025,stable,stable,1,0.496645784621745,0.208054271536182,0.209055648341251,0.897629667937728,0.33385513553754,0.581648824362764
166,1.67328768571218,2.39924287796021,-0.729426969165098,-1.4923323740445,1.67328768571218,0.00202171729431707,0.00171805383958487,0.00265312076880286,1.5899772791527,1.51840322438383,0.0271766011417525,0.0514276232968198,0.113278273692709,0.443912769755563,0.000747570480634994,0.00574758030628209,NaN,NaN,NaN,NaN,1.6985678915868,-115.061450151433,2.00142270374246,stable,stable,1,0.518781088722047,0.163826323730086,0.100718076987285,0.96198870975848,0.349654100581018,0.814870027064672
167,1.46414011027537,2.26332807540894,-0.697789617894008,-1.26382356552221,1.46414011027537,-0.0597074231936318,-0.00664970362165965,0.0600765756570675,0.769684641890279,0.791747405820106,0.176426703015237,0.240208487365363,0.128896806108813,0.440098519968903,0.156619747597773,0.0395206954276503,NaN,NaN,NaN,NaN,1.53242316823457,-117.234742424214,2.25185161012036,stable,stable,1,0.455285220950697,0.190831331025514,0.198478737299121,0.8995182538318,0.342712530618305,0.586291844416822
168,1.72016486829641,2.53550601005554,-0.858206239431041,-1.47895718548734,1.72016486829641,-0.0322251122080699,-0.00158653820725255,0.0322641435700031,0.829598703684828,0.967070820542519,0.177199231838651,0.240204719874085,0.172687190933916,0.425550872231053,0.156709115758727,0.0424319111468774,NaN,NaN,NaN,NaN,1.76822611766951,-118.998443980142,1.59193816259436,stable,stable,1,0.53400393918852,0.189366849883639,0.198698391694542,0.897283694961745,0.323250137362704,0.578122573512153
169,2.47695586721102,3,-0.778384686921741,-2.31559715321775,2.47695586721102,0.00716769446482772,0.00475764712159129,0.00860296751561389,1.58054599466121,1.52010006058715,0.0205167850574344,0.0466098307485956,0.104909668004841,0.410607632291682,0.000138647446613181,0.00511139611966076,NaN,NaN,NaN,NaN,2.66549340284327,-107.193726307889,2.1958689925497,stable,stable,1,0.768057054744115,0.119262140588715,0.0734775949386714,0.96537938846576,0.353373480886737,0.789155290653982
170,1.74107170510454,2.50235795974731,-0.763945079661781,-1.55169806015614,1.74107170510454,-0.0433291466306961,-0.0025075948477188,0.0434016471999009,0.989048391435235,0.943029959434049,0.177173936221878,0.240208065551201,0.136889200449834,0.466428615967797,0.159531350919462,0.0351416568320068,NaN,NaN,NaN,NaN,1.77840570795084,-115.675983280215,2.21290474173037,stable,stable,1,0.540744933683739,0.179246375947939,0.191229432502183,0.896232416275088,0.33916035535563,0.577090503199367
171,1.6292647707219,2.28273844718933,-0.790111829977912,-1.40788953998146,1.6292647707219,-0.0467195228880168,0.00346777734718014,0.0468480447683096,0.867301425499528,0.852783143345914,0.175962707292447,0.240198870735265,0.158764662745225,0.429840452741244,0.156657804104486,0.0438643652800855,NaN,NaN,NaN,NaN,1.68221562017466,-118.331726157389,1.9369368285714,stable,stable,1,0.506165199968384,0.155620385412695,0.178948600244389,0.898503696169991,0.329437927668789,0.581004608593591
172,2.42170282443364,3,-0.843914045187534,-2.23410400950673,2.42170282443364,0.00603071453063449,0.0043618267260446,0.00744278510626519,1.57441062498948,1.62925848444801,0.0332240652405186,0.0524966348521688,0.109013028808961,0.44396701618758,0.0228790033271525,0.00405041205038028,NaN,NaN,NaN,NaN,2.5789773418386,-109.450212225276,1.63280290814572,stable,stable,1,0.750901540560243,0.131481375105245,0.0905301480955552,0.958216281519875,0.351549764973795,0.789896851694528
173,1.55685057404901,2.24561715126038,-0.722955178916907,-1.36245839819093,1.55685057404901,-0.0464258170652813,-0.00525984503287099,0.0467228258985775,0.809287441161766,0.934352044593158,0.175790831540363,0.240181646938365,0.156664114576552,0.443905341502566,0.159515948276296,0.0382274099389445,NaN,NaN,NaN,NaN,1.60572032516396,-117.151648626796,1.91757741084389,stable,stable,1,0.483713877226159,0.163538331287297,0.1829198521255,0.898404559698887,0.330371504632644,0.583345390845015
174,2.23795158200175,3,-0.711756431046532,-2.09391244064429,2.23795158200175,-0.00553160954808419,0.0200480313070585,0.0207971696026467,1.874441740322,1.69639173983817,0.063030443293059,0.240384781674499,0.137207132641668,0.52009280682072,0.0019792312749871,0.00892173504490877,NaN,NaN,NaN,NaN,2.36078838964489,-107.709824257803,2.29689565282758,unstable,unstable,0,0.69425025771127,0.175273708476759,0.109288150719552,0.940428229580783,0.339019052159259,0.567966857554014
175,1.64806484770613,2.49427509307861,-0.807986072745843,-1.41960969179532,1.64806484770613,-0.0426756403026925,0.0147685656072169,0.0451588397253457,0.876262427758839,0.906455918610824,0.175346835697802,0.240207057244294,0.141323460520327,0.391369900876478,0.156665745210555,0.0426925994392739,NaN,NaN,NaN,NaN,1.70036876942666,-118.357386427334,2.01181648601389,stable,stable,1,0.511953809049157,0.198676425825123,0.204359657202935,0.898319509429623,0.337189573102077,0.580395539168801
176,1.75300773660342,2.57785081863403,-0.884033450885085,-1.49503159118053,1.75300773660342,0.00333659383221884,0.00225587026230535,0.00402763069825852,1.40453712623119,1.42807792064613,0.0156251579532844,0.0440660967457315,0.0986723901286437,0.440038065577595,0.000217046950081376,0.00846305736808025,NaN,NaN,NaN,NaN,1.79740384781532,-119.424856454763,2.43870293349206,stable,stable,1,0.543526376396686,0.186328092418236,0.114970796168663,0.96993115994075,0.356145604387269,0.813446439014282
177,1.97115107863939,2.78263401985168,-1.00552960062054,-1.67311650314422,1.97115107863939,-0.0589296480198899,0.000330866772051946,0.0589305768558985,1.01886828287394,0.908839721517877,0.177099852714913,0.24025985202485,0.153188464189561,0.439862501152573,0.156709897483304,0.0432318916793739,NaN,NaN,NaN,NaN,2.00389774569212,-119.82849383685,1.62301370207794,stable,stable,1,0.612431881171514,0.193387600863015,0.201402091727131,0.896303796465179,0.331916238137973,0.569351874319019
178,1.82686706059644,2.7127513885498,-0.983666809550493,-1.51803600450765,1.82686706059644,-0.0571944712306849,0.00824914884093507,0.0577862959183018,0.979256097552949,1.01479240004437,0.176731433052031,0.240221157533118,0.138876967294435,0.499705038939346,0.156719809818901,0.0435089563641863,NaN,NaN,NaN,NaN,1.88108853169074,-121.75609313085,1.68977599531995,stable,stable,1,0.567677135689657,0.209918128041196,0.211425564311004,0.895966759564291,0.338276903424696,0.574010574286689
179,2.50892263213793,3,-0.661477003800592,-2.3855960709534,2.50892263213793,0.00878603503761777,0.00748797891535481,0.0115440131634993,2.17598726312296,1.89040975527118,0.0284227137150898,0.077311812867948,0.123028699227033,0.504169776746187,0.00215842498487261,0.00777259520120902,NaN,NaN,NaN,NaN,2.73243854491602,-104.018907315581,1.93176401389387,stable,stable,1,0.778035376269908,0.112608810182273,0.0713509843576256,0.953838380855073,0.345320578121319,0.786333751353417
180,1.81617699593914,2.75262784957886,-0.913793668502507,-1.54890372599117,1.81617699593914,-0.0523533405590901,0.00432092332132145,0.052531349174039,0.900340015626958,0.780032453185062,0.176451855763353,0.240246221493441,0.115821400013718,0.371243769820405,0.159584821163399,0.0363865121317112,NaN,NaN,NaN,NaN,1.85620598441334,-119.444845846151,2.35623704227774,stable,stable,1,0.56424060022186,0.220332189417511,0.216357359791225,0.898571145577658,0.348523822216125,0.574840620858081
181,1.84117163119673,2.56844329833984,-0.890681241710422,-1.59718984836846,1.84117163119673,-0.0440428540469048,0.00753286976452322,0.0446824027944585,0.773310087689125,0.786162530276459,0.176865505666928,0.240258323087561,0.141133074020662,0.418340032253475,0.159460225523671,0.0361966151098281,NaN,NaN,NaN,NaN,1.8944468966032,-118.434379956689,2.05278903073844,stable,stable,1,0.571805795069523,0.171827898952851,0.187130356210048,0.899314248025378,0.33727418932415,0.57427711714101
182,2.43800404032071,3,-0.453745009939468,-2.36299047974929,2.43800404032071,0.00525872214311922,0.00483827783034299,0.00714584431275415,1.80808872975764,1.61430624606792,0.029408820598605,0.0496026018371675,0.1161172830671,0.441186309160269,0.00763339596850641,0.00416358400352899,NaN,NaN,NaN,NaN,2.61222307005049,-99.3162222201901,1.87285682229992,stable,stable,1,0.755947988866719,0.127759162385178,0.0815621484082917,0.958405343462068,0.348392318636845,0.789400617933414
183,1.79387318844698,2.5800199508667,-0.947688560033892,-1.50342429137591,1.79387318844698,-0.0492405862278647,0.00851630650726512,0.0499716200316686,1.00800207950795,0.925400610878715,0.17629392335659,0.240215365357583,0.152002186952143,0.423225648849145,0.156740411997003,0.0398275266381696,NaN,NaN,NaN,NaN,1.87171872539055,-121.350351106356,1.56224956088507,stable,stable,1,0.557266692885969,0.18604448521691,0.195771833421481,0.896662017182952,0.332443472465714,0.575323920602362
184,2.34101579756964,3,-0.296172897949698,-2.29465898621882,2.34101579756964,-0.00758956632506952,0.00315548335835816,0.00821940339851407,1.01061339873556,0.733394005716325,0.0633368372691603,0.240337814058817,0.134355117267411,0.380003501067147,0.0019488812405626,0.0111194769010678,NaN,NaN,NaN,NaN,2.70378156394852,-95.0700514349474,2.0185328725448,unstable,unstable,0,0.725906683325887,0.149778336169892,0.0947766172880282,0.954628666044727,0.340286614547817,0.566967446926222
185,2.08267612765435,3,-1.20691757039952,-1.66248988583063,2.08267612765435,-0.0766262760856099,0.0166785007100701,0.0784203964073373,0.829855553635737,0.853734521345982,0.176972351727687,0.240333758166156,0.140986981132137,0.389645578243948,0.159530367950814,0.035310725300536,NaN,NaN,NaN,NaN,2.15708888634091,-124.745911655981,1.95017463482028,stable,stable,1,0.647459408822354,0.220774943952449,0.216207615873036,0.898285616404157,0.337339119496828,0.565683511374729
186,2.07406483570735,2.94127464294434,-1.14007200741862,-1.70875399253443,2.07406483570735,0.00587508655846777,0.000121733166260808,0.00587634759295743,2.01394828168078,1.99174798337141,0.0292691039231498,0.0761103285622587,0.129796919111917,0.534998957456797,0.0054976650419615,0.00725179557578621,NaN,NaN,NaN,NaN,2.10837557196529,-122.363616262261,1.88220187419225,stable,stable,1,0.643097213846446,0.196199537020365,0.122800145470548,0.953892120241586,0.342312480394704,0.800573874792872
187,2.02851375106241,2.98315167427063,-1.09951262534409,-1.67055420581847,2.02851375106241,-0.0799167217909124,0.0116689956076548,0.0807641497218757,1.21756978450119,1.26456574733269,0.176624182421463,0.241942186607426,0.161894535263583,0.494045550051937,0.156787769640156,0.041054312090658,NaN,NaN,NaN,NaN,2.09849345512064,-122.244984043751,2.39685168274851,stable,stable,1,0.63072375965619,0.229600293504194,0.222372470036158,0.892185415324859,0.328046873216185,0.566487742769068
188,2.02433996135686,2.79871845245361,-1.14233713895599,-1.64793946501645,2.02433996135686,-0.0611524027732763,0.0116788403371684,0.0622576234413593,0.828538646291685,0.910086891433989,0.176838804084959,0.24028896333624,0.153138289194458,0.445690135500353,0.159521568880905,0.035016819397778,NaN,NaN,NaN,NaN,2.08252249604559,-123.526280590972,2.17553753515734,stable,stable,1,0.628998065900924,0.185649058127686,0.195021298806711,0.897919968732533,0.331938538135796,0.567807438155558
189,2.50259276906649,3,-0.774791590224877,-2.34727446783809,2.50259276906649,0.0070046800499865,0.00726086753944555,0.0100888919127946,1.92380040572144,1.66902615293315,0.028926934193454,0.0531686836861052,0.114912150002848,0.435692864523332,0.00782142464156923,0.00766877783207638,NaN,NaN,NaN,NaN,2.71977714743149,-106.924123588306,1.89048839199482,stable,stable,1,0.776039165888578,0.113766257144052,0.0745245895004086,0.957307181370987,0.348927933332068,0.787085256602513
190,2.02726632316096,2.69076704978943,-1.1090574908717,-1.67835806483295,2.02726632316096,-0.0520505156639692,0.00795592333645258,0.0526550367678213,1.23202347043798,1.19932066708442,0.17596948641321,0.240263263077655,0.161850154556764,0.466551801987646,0.156811355167438,0.0430176703769624,NaN,NaN,NaN,NaN,2.06580628279313,-122.281189709167,2.18372237975106,stable,stable,1,0.629681177704481,0.158941086898839,0.180701376997262,0.892911838570005,0.328066597974772,0.567129157139333
191,2.01137649283117,2.66427493095398,-0.989922864550308,-1.73583442901163,2.01137649283117,-0.0450879714544297,0.00914166292980411,0.0460053819786079,1.19577555611239,1.17153490294671,0.176650871296542,0.240284997224449,0.182160179179878,0.514591691640022,0.156709734585933,0.041328556496813,NaN,NaN,NaN,NaN,2.07634549688122,-118.754548572983,1.8552131953639,stable,stable,1,0.624600171690497,0.155336468607043,0.177879218090148,0.893074267887693,0.319039920364499,0.567786309981515
192,2.47845934708913,3,-0.957563576841947,-2.25213785331299,2.47845934708913,0.00643325125753914,0.00399979785243133,0.00757529567759194,1.87096124367268,1.84461477305865,0.022090032257611,0.0582860581580702,0.126368084732791,0.451579388063438,3.73702537031095e-05,0.00958543251907001,NaN,NaN,NaN,NaN,2.68099720733185,-111.612146549017,2.18654331690809,stable,stable,1,0.768499154496775,0.118735451112504,0.0747434914942645,0.959761172311163,0.343836406785426,0.78828167939192
193,2.0582336909106,2.84744787216187,-1.07849327526335,-1.73015301492497,2.0582336909106,-0.0618253410800581,0.00952620619499759,0.0625549470796286,0.930130508988366,0.856002291693724,0.175962656220326,0.240307989411608,0.145144760010189,0.390487309355691,0.159565177234097,0.0378883731440193,NaN,NaN,NaN,NaN,2.11900443077325,-120.570247299149,1.80943276427369,stable,stable,1,0.639512059614144,0.189041597746133,0.198120405430356,0.897984771313049,0.335491217773249,0.566710409168469
194,2.49909524745252,3,-1.01885681453842,-2.24394761919681,2.49909524745252,-0.0332709688945802,-0.000677887280912074,0.0332778740659578,1.38477560550549,1.18889360682043,0.063538972376288,0.240211971713094,0.10623732347998,0.436105064784038,0.00187404143351131,0.00763451445253274,NaN,NaN,NaN,NaN,2.61715863552686,-112.220792726245,1.97089537717324,unstable,unstable,0,0.775496010438486,0.118804512901942,0.0748918021185966,0.948008827143581,0.352783411786675,0.560398365733176
195,2.00640140909727,3,-1.00739798925753,-1.70448706514292,2.00640140909727,-0.0644923254812912,0.0104925750296955,0.065340295199353,0.983198121318309,0.970541417126141,0.175721953510185,0.240323371000466,0.153250576317867,0.465922144170035,0.156690957931839,0.0405491836370028,NaN,NaN,NaN,NaN,2.08957514186263,-119.371133784789,2.11755629521543,stable,stable,1,0.623509043708138,0.235538737072996,0.225708825677464,0.896788212585701,0.331888632747615,0.568166730926205
196,1.93902064482371,3,-0.908241480624462,-1.69179661870623,1.93902064482371,0.00746013250489791,0.00347626581591787,0.00823030989778353,2.02669766411797,2.23050166003623,0.0144717795107216,0.0716483822149523,0.13854959562673,0.541175749814045,0.000182890214208276,0.00574805276955895,NaN,NaN,NaN,NaN,1.98818975952798,-117.123132335998,2.44784112749516,stable,stable,1,0.601288440459632,0.240229245062592,0.146309032584316,0.959314686983428,0.338422401943676,0.805735001667532
197,1.91846976758671,2.9481782913208,-0.869180425485016,-1.6810928729813,1.91846976758671,-0.0654217251354544,0.000831047162294773,0.0654270032867539,1.09898120085467,1.05989548151383,0.176417419389457,0.240281296480051,0.170986710119461,0.470155679840673,0.156668806260061,0.0410464122299257,NaN,NaN,NaN,NaN,1.96491164649544,-115.571452830696,1.5,stable,stable,1,0.596252258028572,0.243679368442741,0.230764169709281,0.894828687800948,0.324005906613573,0.570729063166056
198,1.79038030679534,2.6931095123291,-0.789570191797588,-1.58027283192526,1.79038030679534,-0.0611155935181351,0.00820046724749442,0.0616633070322306,0.816787824610345,0.655472500815301,0.177195219871283,0.240267602783034,0.131167083616234,0.399633329920967,0.159531956907695,0.0380767390504208,NaN,NaN,NaN,NaN,1.88489007794024,-115.359098105949,1.82448980513406,stable,stable,1,0.556456705603974,0.214419010867672,0.213400585407004,0.899834630364586,0.341703518392785,0.575708726710775
199,2.47396279454231,3,-1.11853599856842,-2.17107110681737,2.47396279454231,0.00636352424367029,0.00261242418289913,0.0068788953263715,2.06434406461103,2.02344414598046,0.0342763825519062,0.0550930686825781,0.134964300638057,0.454780858111974,0.0242851330191511,0.00504915613078286,NaN,NaN,NaN,NaN,2.68563096804021,-116.007396076949,1.59153704214103,stable,stable,1,0.767088973865732,0.119619502037814,0.0844011504504749,0.950743472783685,0.340015866383086,0.787087349426716
200,1.92487696887685,2.58192205429077,-0.813683000872252,-1.73035783473822,1.92487696887685,-0.0385218720175197,0.00697726321204293,0.0391486503683625,1.10940722741297,1.01519430016961,0.176283565758314,0.240241423132074,0.151137971473345,0.479684738205367,0.156723495903617,0.0432001738907192,NaN,NaN,NaN,NaN,1.97177383483815,-114.893051128023,2.24870543375846,stable,stable,1,0.597625328860417,0.155012396785667,0.178371479281754,0.895164919404123,0.332827568234069,0.571031135040675
201,1.8220417240039,2.52671909332275,-0.768649832717382,-1.63655088719143,1.8220417240039,-0.0484219713371227,-0.00202736019380224,0.0484643941211333,0.934776328140878,0.912035967240313,0.176547277816395,0.240219702215508,0.163838840494807,0.453393033087542,0.156697522727019,0.0419834690744491,NaN,NaN,NaN,NaN,1.87135485490829,-114.338554000358,2.10344416602731,stable,stable,1,0.565963770304036,0.167437547018949,0.185372587672673,0.897215693056664,0.327182737557864,0.574517871031253
202,2.34374536355336,3,-0.947672095341919,-2.10933464593616,2.34374536355336,0.00866808159506289,0.00302395553465599,0.00918041097196878,2.62367042516408,2.49930773516816,0.0171137954993787,0.0759610762189526,0.158921835747107,0.476433974660699,0.000316665668759252,0.00506145634687451,NaN,NaN,NaN,NaN,2.45321237213052,-112.912057666969,2.38445472296957,stable,stable,1,0.726775272290889,0.149340368545354,0.0915854910051203,0.951191130990557,0.329368073001286,0.79134628814109
203,1.77854147776454,2.67933416366577,-0.67951243114608,-1.61726941930856,1.77854147776454,-0.0680037665415355,-0.020981587146581,0.0711669815506126,0.916285535463389,0.815444475678324,0.177002551945728,0.240264266437458,0.149224342744566,0.389445722972226,0.159478814709682,0.0372043910841396,NaN,NaN,NaN,NaN,1.87029192840855,-111.765439209843,1.72250016528517,stable,stable,1,0.553008421009856,0.215725634278722,0.213843723256678,0.897892273939594,0.333678069891304,0.575635820886456
204,2.61374176766751,3,-1.10336213341251,-2.32969581123742,2.61374176766751,-0.0345223673772818,-0.00268322612906204,0.0346264862755622,1.44603697029721,1.39357457370929,0.0619426313822869,0.240355592659512,0.109467552445758,0.518456323739681,0.00185260201376102,0.00812955952896059,NaN,NaN,NaN,NaN,2.83139096612359,-113.380852443651,1.88724740007472,unstable,unstable,0,0.811067899323356,0.093256291425331,0.0597333569930578,0.946717450748805,0.351347754468552,0.556455046653304
205,1.90910021058556,2.7880392074585,-0.669830682008047,-1.76692112903804,1.90910021058556,-0.065437414997869,-0.0137887644725539,0.0668743994910077,0.991409366169038,0.701389467105813,0.177379093741283,0.240260235599914,0.12175855098309,0.448909760616506,0.156733528366493,0.0413979030192395,NaN,NaN,NaN,NaN,1.96890032989532,-109.962500805727,1.53758451776692,stable,stable,1,0.593381467936314,0.210021580869762,0.210726077378608,0.898009890867913,0.34588508845196,0.571485424795064
206,1.84177530725797,2.63046526908875,-0.69344645919422,-1.68545469900911,1.84177530725797,0.00698371114964419,0.00774894447491919,0.010431603994451,1.41390983420673,1.56480959316094,0.0326006651107179,0.0529273982625124,0.106255222718663,0.427385993503092,0.0259823331480759,0.00629054805096916,NaN,NaN,NaN,NaN,1.88103759945373,-111.044045995161,1.56241330723552,stable,stable,1,0.571193749343175,0.17936770214424,0.121455796926446,0.960295443372467,0.352775456569483,0.584004065950083
207,1.81829273862904,2.53471302986145,-0.64626156825534,-1.67944140147377,1.81829273862904,-0.0668981674780647,-0.0110556489448125,0.0678055468639117,0.924376669320974,0.814332156149189,0.17728778961437,0.240231124581687,0.141554739230458,0.40518349457363,0.159529814827915,0.0346812654701183,NaN,NaN,NaN,NaN,1.84674652348663,-110.007318336506,2.21824517562737,stable,stable,1,0.565252878401826,0.173625582452344,0.187688858656785,0.897694821564121,0.337086782564241,0.574373112159056
208,1.67279489672914,2.53252148628235,-0.567810055089203,-1.54850778994739,1.67279489672914,-0.0620725431673725,-0.0138651280323824,0.0636022200132958,0.960695911725685,0.849937560808731,0.177602816790478,0.240223709683025,0.15815732344375,0.422779175630401,0.159544376911588,0.0351741404669433,NaN,NaN,NaN,NaN,1.72909108974606,-109.238188244666,1.5,stable,stable,1,0.520050469786343,0.20509888965191,0.206758542285286,0.896972185749133,0.329707856247222,0.57906695486844
209,2.34118475970006,3,-0.931765535017429,-2.11909448347059,2.34118475970006,-0.00540590317086161,0.0193258319032213,0.0200676746994837,0.931342276888707,1.02406047455582,0.0228378445441193,0.0501466085672591,0.158374344235793,0.302538496009031,0.0148297923158335,0.00505275699411342,NaN,NaN,NaN,NaN,2.74772911835878,-112.940250815686,1.66221709788921,stable,stable,1,0.726235521250006,0.151912502762392,0.0995758866441501,0.973217198966591,0.32961140256187,0.569542890847496
210,1.64910987648023,2.21604800224304,-0.599197072136466,-1.52578275412321,1.64910987648023,-0.0370344198481526,-0.00737316160106501,0.0377612468740727,0.896877175406344,0.873363934535799,0.176690993444165,0.240190052914234,0.148989768543811,0.4396802556674,0.156679744468658,0.042241038329212,NaN,NaN,NaN,NaN,1.6861474659824,-110.854941629242,2.10133830771696,stable,stable,1,0.512105157469267,0.134483973556879,0.165686203694457,0.897745465985515,0.33378232509164,0.580404927091923
211,1.77603518800671,2.43578004837036,-0.603577905471095,-1.65313771713764,1.77603518800671,-0.0554091892855581,-0.0170379029929956,0.0579695471405594,1.07123685221008,0.99234119997943,0.177290311171036,0.240237562070773,0.180768922105896,0.472668584333033,0.156724503099016,0.0383554459661256,NaN,NaN,NaN,NaN,1.81769744353531,-109.22504436691,1.57119240846022,stable,stable,1,0.551923531048692,0.159070343890925,0.179044975942002,0.895141016861564,0.319658256841824,0.575535541844057
212,2.43683920621872,3,-0.999344422213979,-2.18859815382696,2.43683920621872,0.00571928583802079,0.00535170178843596,0.00783268424802978,1.81101472014806,1.72786130960572,0.0207278293294111,0.0509068748203298,0.117255390490101,0.440163202232793,0.000187687655291987,0.0069292458683206,NaN,NaN,NaN,NaN,2.59907613950057,-113.073671111716,2.2384911713596,stable,stable,1,0.755602916560257,0.128147170712927,0.0794914449337399,0.9618306308158,0.347886493115511,0.789940248445921
213,1.79265155921988,2.70328998565674,-0.661893883444747,-1.64680766769156,1.79265155921988,-0.0562207213915532,-0.00167264702135388,0.0562455977107959,0.998164411061489,0.87442926968252,0.176047708850887,0.240252858478375,0.152271056101501,0.423192868229564,0.156791087671083,0.0426479832099914,NaN,NaN,NaN,NaN,1.85818525653268,-110.61998311022,2.08878415784717,stable,stable,1,0.557034380638081,0.215205338861939,0.214316488701884,0.897262909511568,0.332323975065999,0.57534396279215
214,2.48385881620295,3,-0.875320536201268,-2.29310946263596,2.48385881620295,-0.0165743681337969,0.0152304848850848,0.0225094946382502,1.4569335473576,1.21013612627402,0.0623417491902129,0.240369033596259,0.110738035344179,0.410230960419397,0.00193000855747405,0.00966518418500165,NaN,NaN,NaN,NaN,2.69340139466995,-109.563755601497,2.22143802139982,unstable,unstable,0,0.770521454564473,0.120258507038016,0.0765274982348187,0.947873577969217,0.350783095402587,0.561061709012617
215,1.74115806128703,2.63272953033447,-0.505405038030446,-1.64266089255353,1.74115806128703,-0.061464743978315,-0.00558581711026192,0.0617180371132225,0.912487568681394,0.641934059301723,0.176880069914294,0.240233482390503,0.119044316245699,0.393179286360023,0.159608743426133,0.0353572392623135,NaN,NaN,NaN,NaN,1.7939889891403,-105.721237886439,1.62152899643411,stable,stable,1,0.541199086531621,0.211918554006432,0.210945529617931,0.899346652251557,0.347091415001911,0.577234295196424
216,1.76381556272507,2.47247505187988,-0.59641040974064,-1.64690069150166,1.76381556272507,0.00306242501321595,0.00492834018324915,0.00580232573399658,2.19936853901385,1.909035407059,0.0304054131221597,0.0733075050723524,0.135529047383008,0.513949041512244,0.00714734377383976,0.0053114704809244,NaN,NaN,NaN,NaN,1.80361410443525,-108.940177448437,1.84917390839108,stable,stable,1,0.546918212045231,0.160512144777733,0.101415327910703,0.952516976719776,0.339764867829774,0.585452000019057
217,1.56311007584033,2.26329302787781,-0.477632242102164,-1.47722644870083,1.56311007584033,-0.0409902429862028,-0.0167574080348063,0.0442833009622469,0.7559037063898,0.58546354849242,0.177795330043396,0.240157308607268,0.110086469538867,0.386948715644519,0.159549137379218,0.0364130340720124,NaN,NaN,NaN,NaN,1.62899099229363,-106.989296335634,2.34471849872682,stable,stable,1,0.485597400532956,0.165659769384844,0.183547692653916,0.900563020832799,0.351072680204948,0.58350841789327
218,1.67364524538014,2.33417248725891,-0.496500875403561,-1.58074487584278,1.67364524538014,-0.0452224037848782,-0.00787446906280078,0.0459028655652735,1.1191709150365,0.93763670835816,0.177456239757884,0.240220461674174,0.162420585666405,0.462922501958361,0.1596946347058,0.0348239015110187,NaN,NaN,NaN,NaN,1.72962448442775,-106.464764852446,2.20997836821263,stable,stable,1,0.519901092931034,0.157034154776357,0.177859122981489,0.895111248794386,0.327813073037154,0.579069916696911
219,2.38905540466309,3,-0.337403615248866,-2.33532524564353,2.38905540466309,0.00591804619154153,0.00674048197249995,0.0089698031163909,1.63791944151794,1.38255056314669,0.0320858562119605,0.0498732488340087,0.106551085785543,0.394968692161622,0.0143618510731113,0.00619937476276513,NaN,NaN,NaN,NaN,2.54483518005748,-96.6609125662873,1.72180125314885,stable,stable,1,0.740816470851606,0.139106997855477,0.0921015617302201,0.960224807571655,0.352643961873092,0.566232448929661
220,1.63293306073364,2.41675567626953,-0.463797441326957,-1.5490898775103,1.63293306073364,-0.0435679106230579,-0.00622905751386895,0.0440109531090824,0.890997986277319,0.754275937357384,0.177517594617753,0.240185685539717,0.134563265706046,0.370873473200951,0.159522809622726,0.034821715664058,NaN,NaN,NaN,NaN,1.6727625065453,-105.886155350416,2.28057719284077,stable,stable,1,0.50723617106664,0.184428763232241,0.194218726497991,0.898314050433994,0.340194104130646,0.580906591411847
221,1.70314127409539,2.5246696472168,-0.532235678224516,-1.60023096808607,1.70314127409539,-0.0505170340667282,-0.00844375338065308,0.0512178455428601,1.10676112437798,1.03930989728714,0.177303038301009,0.240227889061686,0.140962685460824,0.479447706650939,0.156806617345284,0.0419017130361408,NaN,NaN,NaN,NaN,1.74729559054114,-107.093034415415,1.93704388535017,stable,stable,1,0.529168878032238,0.19423382230184,0.201469109870938,0.894486494250698,0.337349917572967,0.577924570432504
222,2.38627428253492,3,-0.379225402955017,-2.32514018761101,2.38627428253492,0.00368843964521644,0.00590042644692321,0.00695842074553956,1.47046763999266,1.46234789016065,0.0191103694076235,0.0496017680360818,0.102463297107678,0.381243101806675,0.000149128442937651,0.00486185660212117,NaN,NaN,NaN,NaN,2.52131395840868,-97.8254488194684,2.29331144686824,stable,stable,1,0.739907390736554,0.139363996899659,0.0854526253030846,0.967401264702127,0.354460756841032,0.792434503159887
223,1.69368927413914,2.47881722450256,-0.472260874079934,-1.60184592624533,1.69368927413914,-0.0664604703857613,-0.0123456258468077,0.0675974008483021,0.715306714494835,0.597525826583206,0.177487331568438,0.240214032759232,0.116061330474136,0.381809753859628,0.159576987080388,0.0360435593437433,NaN,NaN,NaN,NaN,1.74431436087838,-105.028659224931,1.89654435930139,stable,stable,1,0.526620947669595,0.189046645653958,0.197457841613706,0.900941221393025,0.34841718645594,0.578913327284586
224,2.23240944626688,3,-0.235827015806541,-2.19125830171103,2.23240944626688,-0.011744196773062,0.0119689977425857,0.0167685140905932,1.36893358537472,1.13199463283174,0.0621714401010023,0.240446167874528,0.102865159908348,0.37827925622405,0.00193099740500417,0.00802639083475732,NaN,NaN,NaN,NaN,2.31623984576526,-95.1047427981777,2.45121099281554,unstable,unstable,0,0.692438193671512,0.175782102173228,0.109246169949103,0.949264129663591,0.354282151151845,0.56954286344928
225,1.65057974364482,2.40827250480652,-0.498089047774974,-1.55679339259067,1.65057974364482,-0.053263643832169,-0.00647204464503259,0.0536554108750222,0.773513780077176,0.622775541557738,0.176589998255543,0.240180494952124,0.130208038380338,0.377186001357424,0.159459734158818,0.0361282429968273,NaN,NaN,NaN,NaN,1.70142643628539,-106.579492306313,1.76957340944466,stable,stable,1,0.512931680116978,0.18031769658847,0.192199153820494,0.90073415620224,0.34212976071985,0.580527312071566
226,1.72266505936782,2.56309533119202,-0.450066921239856,-1.64570487686377,1.72266505936782,0.000426976275947604,-0.000185971028265628,0.000465718760172123,1.94693187839484,2.03888269203109,0.02963523861741,0.0756072181060762,0.127287163171319,0.476739797845923,0.00811107539814842,0.00579316634119796,NaN,NaN,NaN,NaN,1.75332894250072,-104.127752844779,1.84857263966945,stable,stable,1,0.534037035175093,0.189182192933143,0.119220844101317,0.953865266209377,0.943427927479414,0.937085025423649
227,1.80719563669088,2.64883041381836,-0.576430199606729,-1.69199901842535,1.80719563669088,-0.0545202235129949,-0.00256232589943342,0.0545804020315152,1.2084452292137,1.12851168111039,0.176644618400555,0.240223680853477,0.164145069538719,0.440240139670921,0.156696957280609,0.0417989768486277,NaN,NaN,NaN,NaN,1.84897228717497,-107.576449356283,1.62339441965621,stable,stable,1,0.561504190088241,0.199374231892794,0.204467259205347,0.893315886504319,0.327046635760569,0.574308367747643
228,1.70964173881375,2.49390244483948,-0.487046249587055,-1.62246167059037,1.70964173881375,-0.0442732328908345,0.00260479255978348,0.0443497925010431,1.19261536459127,1.11259323414789,0.178091305273461,0.241448316994126,0.159575086817895,0.492136020834106,0.156706644633093,0.0396469737832468,NaN,NaN,NaN,NaN,1.764863382664,-105.90015806783,1.96376993260137,stable,stable,1,0.531023767523954,0.184589454147646,0.194818151479022,0.892841994087462,0.329077739192047,0.577586821232904
229,2.46345528960228,3,-0.210879264942483,-2.42315106791553,2.46345528960228,0.00512850131532098,0.00665128342069874,0.00839887473913684,1.66662741572596,1.41419499526732,0.0295262459469048,0.0558170712769875,0.104551014650037,0.428059560645643,0.00864732860688643,0.00498027884647827,NaN,NaN,NaN,NaN,2.6625563393492,-93.501421209398,1.85316493974987,stable,stable,1,0.76386711352062,0.122262353541662,0.079011679773242,0.961030415225886,0.353532882377762,0.788945285063874
230,1.72548020048206,2.2667543888092,-0.371518312849336,-1.6735560604577,1.72548020048206,-0.0349654862631506,-0.00706306312378317,0.0356717267637708,0.935039277244577,0.643784645224411,0.177294783453767,0.240192173518514,0.127044211696007,0.362080502033135,0.159546325395662,0.0366892072613891,NaN,NaN,NaN,NaN,1.7843493201712,-101.482609162714,1.97880306712967,stable,stable,1,0.535731202440594,0.128326508946965,0.161246913235039,0.898947563168003,0.343535905912886,0.578139772741167
231,1.64082569573201,2.39559292793274,-0.390190382839095,-1.57857608725367,1.64082569573201,-0.047481990112202,-0.0143180991977606,0.0495938237046929,0.963106583602017,0.967640475482618,0.176261089785962,0.240194608746103,0.152670553054672,0.454123124936918,0.156630700997528,0.0404030264507043,NaN,NaN,NaN,NaN,1.69055677769575,-102.692058050381,1.99069953385558,stable,stable,1,0.5098131548967,0.17891482825769,0.191654551460842,0.896699299642782,0.33214642086459,0.580310167920295
232,2.5019339577357,3,-0.368528955410055,-2.44387843309705,2.5019339577357,0.00537448887875958,0.00573415192322619,0.00785911120843502,1.84425959190981,1.30620327178359,0.0292568126894064,0.0526911747314094,0.108274400789975,0.416361158407421,0.00626722617662177,0.00719884266799111,NaN,NaN,NaN,NaN,2.73252747036013,-97.0376062957009,1.91740515657805,stable,stable,1,0.775782906159596,0.113505696564348,0.0735066127650636,0.960617956869134,0.351878044093345,0.787642305457812
233,1.81887658680377,2.5354688167572,-0.494868042066768,-1.73285944393913,1.81887658680377,-0.0528147732473761,-0.0110739146831386,0.0539632454507806,0.971195426399108,0.834875960798847,0.175629758341453,0.240254583887331,0.154191537985464,0.378006063465945,0.156725667174734,0.0434689504115821,NaN,NaN,NaN,NaN,1.88176089111147,-104.830618370753,2.00368555802729,stable,stable,1,0.565110884303021,0.171126513405498,0.188138651179716,0.897994559929861,0.331470427562016,0.574641338122968
234,2.48463061982832,3,-0.39795620965832,-2.42237771685868,2.48463061982832,-0.0102184555533629,-0.0010165725240542,0.0102688973893362,1.22310931686972,0.767617333156781,0.0621031927766558,0.240317635748691,0.141785009951562,0.424965076807349,0.00190344803206378,0.00896378177355387,NaN,NaN,NaN,NaN,2.62292276633497,-97.514637252602,2.14310635705339,unstable,unstable,0,0.770475099752531,0.117840741726673,0.0748099789477081,0.953306979932892,0.336984440021528,0.5620658461412
235,1.83284391797319,2.75563883781433,-0.44323308484889,-1.75301185074638,1.83284391797319,-0.0698600323989192,-0.0283404584541022,0.0753896923469431,1.03531628909519,0.766637567057561,0.176588864274532,0.24028005570232,0.124942956495235,0.430171398580726,0.156911189983075,0.0429189087041557,NaN,NaN,NaN,NaN,1.89578161223685,-102.881558167136,1.71937592719426,stable,stable,1,0.569940707393117,0.221450300561197,0.218215362888283,0.897547358992963,0.344469797113229,0.573745356898744
236,1.76133617917697,2.56613850593567,-0.431028177075621,-1.69647587036107,1.76133617917697,0.00408988457843422,0.00152503623774134,0.00436496178578213,1.84824092038141,1.64647051152489,0.026319885962221,0.077302483254725,0.11350947755404,0.491324389391483,0.000361011751833903,0.00657259960051867,NaN,NaN,NaN,NaN,1.78835112320171,-103.489545949386,1.99340913165516,stable,stable,1,0.546116064653195,0.181880766514768,0.111678945794713,0.959381610053911,0.349551343309316,0.811587428853584
237,1.78766695577271,2.49880480766296,-0.404665588881194,-1.72390331843758,1.78766695577271,-0.045221598790987,8.41238197193413e-05,0.0452216770369039,0.932417370384622,0.709477670480074,0.176200296790394,0.24020983572461,0.118812867619843,0.406397686421353,0.156680703236113,0.0397181892038375,NaN,NaN,NaN,NaN,1.84557375477217,-102.044516136708,1.79138539766244,stable,stable,1,0.555231928753735,0.168296657465406,0.185056840476487,0.898999247712295,0.347194281057848,0.575959331746085
238,1.85150067579179,2.5840163230896,-0.511467468465724,-1.76749171954208,1.85150067579179,-0.0502795810360068,-0.0108448991787521,0.0514358640187338,0.983650870043162,0.844348792776746,0.17638357506513,0.240206775380696,0.171302970183354,0.399251371733256,0.156695279330871,0.0389299453071429,NaN,NaN,NaN,NaN,1.90533281829438,-104.984309855274,2.35272574466198,stable,stable,1,0.575165379655891,0.174245929045443,0.188346247544594,0.89744535797385,0.323865346585176,0.573542904112517
239,2.54750940084457,3,-1.23339098621945,-2.19265652746606,2.54750940084457,0.00885111116996564,0.00312387729571215,0.00938620148418711,1.33770376895931,1.43389081446778,0.0329662852809945,0.0580113426368993,0.0962115831179762,0.471745319571856,0.0244474707566172,0.00542720968545224,NaN,NaN,NaN,NaN,2.80149526965303,-118.153335216797,1.55978352555505,stable,stable,1,0.789946925629782,0.103531188415405,0.0749577864024496,0.961740042775433,0.357239296392011,0.786302692362893
240,2.00680165469241,2.86008191108704,-0.996005686402883,-1.72059253972552,2.00680165469241,-0.0576044587638191,0.0177459645245974,0.0602759730438324,0.911155600579559,0.931986161156973,0.17648787768141,0.240270499629995,0.13120750242339,0.405585482694187,0.156743791273579,0.0410887693777035,NaN,NaN,NaN,NaN,2.07118132763553,-118.983811765613,2.08705416634786,stable,stable,1,0.62351495232567,0.203038652746827,0.206428469563599,0.897274233031365,0.341685554478493,0.568315251648934
241,2.04201563037172,3,-0.665159627305387,-1.90073206940879,2.04201563037172,-0.0757894196770664,-0.0122625472126957,0.0767750363017178,1.27809402817456,1.14528343321745,0.17659134387107,0.240414066071281,0.163543063171182,0.503277078842516,0.156671178952384,0.0417025954211218,NaN,NaN,NaN,NaN,2.13528443357666,-107.799516179167,2.29797775681259,stable,stable,1,0.634816262928939,0.229621906488345,0.222569359136091,0.892663505153528,0.327314194146142,0.566190454650668
242,2.58312408526738,3,-0.960707813054753,-2.36429433912526,2.58312408526738,0.00775793534122864,0.00559313485845675,0.00956392797461212,2.16036478018361,2.08321092629858,0.0339948370798481,0.0824274557608033,0.135213223662666,0.520276652351265,0.0206826142789333,0.00406350554421549,NaN,NaN,NaN,NaN,2.89532519886852,-110.529278296591,1.64981883861512,stable,stable,1,0.800991624752297,0.0955504676101839,0.0680001919586844,0.949660200909144,0.339905233927704,0.783330128625626
243,1.91774604596248,2.71170163154602,-0.519133719659072,-1.8322244125952,1.91774604596248,-0.0412944648552287,-0.00117779871389638,0.0413112579993659,1.04711060792763,0.755708839591231,0.175905741325084,0.24024315378351,0.125253937433072,0.446878582163144,0.156722052692263,0.042683024568159,NaN,NaN,NaN,NaN,1.98376410935557,-105.253473220487,1.97837492419716,stable,stable,1,0.595465203601688,0.186213737389513,0.196903587917681,0.897882119392667,0.344331583363079,0.57163262440013
244,2.62224747264633,3,-1.13930281900971,-2.32899550689222,2.62224747264633,-0.0122834876153061,0.0114851865332623,0.0168164674560149,1.5326674710676,1.40795270939201,0.0627145863169295,0.240458870716564,0.121621338631138,0.429186329285383,0.00189309513755477,0.00870924159205455,NaN,NaN,NaN,NaN,3,-115.060047740346,2.40180467196744,unstable,unstable,0,0.813289100761003,0.0880773376881785,0.0568547751721634,0.945537833995067,0.345946071719494,0.556313344057774
245,1.9603371036296,2.63526201248169,-0.486991351345185,-1.88331761774724,1.9603371036296,-0.0587184263026817,-0.0111366929812211,0.0597652032375147,1.11615345011452,0.837549761085346,0.176301922553434,0.240256984064349,0.163575802864565,0.465497970147336,0.156721667697878,0.0421882986571738,NaN,NaN,NaN,NaN,2.02680193318135,-103.825614484035,1.89121143125773,stable,stable,1,0.609099023534051,0.162815058418598,0.182684309095249,0.896498513492427,0.327299643171304,0.569717930099246
246,1.8584278579553,2.8359739780426,-0.496841213436967,-1.76508617021014,1.8584278579553,0.0070346064725837,0.00893246230789056,0.0113698975855547,2.13538683972818,1.6885559866923,0.0268139219851297,0.0772931765588491,0.122753340811399,0.473447195246133,0.000850432282718503,0.00570846860666496,NaN,NaN,NaN,NaN,1.91020204552772,-104.030801725607,1.98763776228452,stable,stable,1,0.576377933576472,0.222032358243662,0.135673191615688,0.956547773942703,0.345442959639378,0.807884287500111
247,1.7065988762849,2.55331039428711,-0.441086925767225,-1.62323069488442,1.7065988762849,-0.0631754442958647,-0.00934315938851932,0.063862597734035,1.05544084815377,0.845854045537738,0.176443513921033,0.240239341567302,0.141528599746373,0.443796366297507,0.159476230300441,0.0349424127054313,NaN,NaN,NaN,NaN,1.78476089748518,-104.078838145178,1.75595043621864,stable,stable,1,0.530535778928781,0.202218234468403,0.2049155971519,0.896839497446193,0.337098400112723,0.577943865677324
248,1.83959128824221,2.54966926574707,-0.482629823950887,-1.76590800651497,1.83959128824221,-0.0375972657111021,-0.00919519971288548,0.0387053754239778,1.14457653879431,0.999962359155115,0.17693914589943,0.242764442308957,0.157384081486721,0.463045742289795,0.156671170637132,0.0430531959684271,NaN,NaN,NaN,NaN,1.90922031505331,-104.621382567611,1.54381819268625,stable,stable,1,0.571176424781645,0.166863530432989,0.185405457278957,0.894680478566396,0.330051519339235,0.573738010847168
249,2.59563283880552,3,-0.995837263672468,-2.36366119081901,2.59563283880552,0.0078441056512096,0.00528882406472332,0.00946053135161735,1.75987185751361,1.68570813810767,0.0286163187719208,0.0704146959563293,0.112204094679607,0.473617055438736,0.00538338586888187,0.00776260261692638,NaN,NaN,NaN,NaN,2.9110715016838,-111.232773807897,1.91708951038546,stable,stable,1,0.804866925761248,0.0927170420165552,0.0608456057396317,0.95861942636273,0.95013151347573,0.909269287394577
