scenario_id,mean_wind_speed,max_wind_speed,wind_velocity_x,wind_velocity_y,wind_velocity,wind_acceleration_x,wind_acceleration_y,wind_acceleration,wind_body_force_x,wind_body_force_y,wind_body_force,mean_wind_body_risk,mean_wind_gust_risk,mean_wind_risk_raw,min_thrust_margin_n,mean_abs_roll_deg,mean_abs_pitch_deg,mean_abs_vz,max_abs_vz,mean_tag_error,max_tag_error,stability_std_z,stability_std_vz,mean_imu_ang_vel,max_imu_ang_vel,mean_imu_lin_acc,max_imu_lin_acc,wind_speed_cmd,wind_dir_cmd,hover_height_cmd,gt_safe_to_land,label,success,onto_wind_condition,onto_gust,onto_temporal_pattern,onto_drone_state,onto_tag_observation
1,2.03434894522842,2.70735597610474,-1.25407527934671,-1.58396881120457,2.03434894522842,-0.0545263436231907,0.0151023495651564,0.0565791755975858,-0.0852705829773408,-0.132091477089121,0.161004856113423,0.0103824398186842,0.126977681971962,0.0453610124646674,15.4825670408408,0.912625709845146,1.09041004971297,0.176521729539606,0.24029436070805,0.139861158860688,0.400050095657754,0.159550799813712,0.0354200046183518,NaN,NaN,NaN,NaN,2.0716688985117,-127.374480982322,2.31472368639318,stable,stable,1,0.551565254553846,0.161799430806728,0.18087112674731,0.896000997119383,0.337839484950805
2,2.30981901055675,3,-1.40155222708143,-1.79578595595722,2.30981901055675,-0.00355990975693941,0.00541102056813892,0.00647704416121851,-0.112057191897943,-0.174817753460293,0.217369904507646,0.0140224360180656,0.226189858911843,0.0776726628861989,15.4647489623368,1.58074655260209,1.58220006055955,0.0238827457506668,0.146647830624077,0.119646365739703,0.424471376826625,0.00279432780417003,0.0079371654671703,NaN,NaN,NaN,NaN,2.42882567996652,-126.095851442396,2.21228503754817,stable,stable,1,0.631486268725708,0.156478180720954,0.0980150738891542,0.963206903735539,0.346823837449021
3,1.77880777528622,2.73187017440796,-1.09798381127866,-1.36587789543581,1.77880777528622,-0.0771645099752302,0.00942812372540197,0.0777383503600307,-0.0701507846328481,-0.104519918952522,0.132385071821284,0.00853818434976021,0.183700928013874,0.0610870074489942,15.4160980111272,1.02049145130713,1.09225595539177,0.175316402222674,0.240240655773641,0.154500667518288,0.461725434620599,0.157104070892418,0.0398051227938172,NaN,NaN,NaN,NaN,1.87319628751653,-127.297520073929,2.34085471135786,stable,stable,1,0.486566141566124,0.22869107070173,0.221513264035622,0.895741640693171,0.331333036658539
4,2.33740938834424,3,-0.673053264465681,-2.20908911761709,2.33740938834424,-0.0162367503189793,0.0152232067201973,0.0222570906402147,-0.0326175008712538,-0.271028915356018,0.27465082890865,0.0177186103253105,0.226893645466783,0.0804711208677524,15.4236790328439,1.5961912208832,1.54252854175883,0.0626271101585972,0.240425954822928,0.128525935663886,0.478875266875948,0.00193491024003523,0.0102591692051554,NaN,NaN,NaN,NaN,2.46779887999601,-105.553838771394,2.15398071099595,unstable,unstable,0,0.639403394398682,0.153163354239918,0.096488579634326,0.944025075357085,0.342877361927162
5,1.81069257794594,2.59184169769287,-1.04410681537921,-1.46489462521783,1.81069257794594,-0.0461310476498065,0.0125488402989787,0.0478073943037894,-0.0590064234583151,-0.113480663164233,0.130381310013139,0.00840756567395697,0.112640382375009,0.0396774106842726,15.4611174028196,0.848315138127866,0.994842599316335,0.176579590870891,0.240191600640945,0.139311903139732,0.441756741895493,0.156728299451682,0.0417782503125214,NaN,NaN,NaN,NaN,1.88084050141636,-125.058018224367,2.08588638071622,stable,stable,1,0.490786836255773,0.184523240898754,0.195563057540512,0.897228250913207,0.338083598604564
6,1.8856373377641,2.61152124404907,-1.03449779318666,-1.56152199060901,1.8856373377641,0.00583621770952227,0.00494994899845724,0.00765267484218879,-0.0579612571501123,-0.128189981786542,0.143124584107907,0.00923176126098033,0.128619078015064,0.0450479562872055,15.4633657414956,1.46208849966475,1.32672554152446,0.0337745880901409,0.049688288473578,0.0974892211844928,0.410665969435439,0.0261394164471578,0.00532584955322629,NaN,NaN,NaN,NaN,1.9161886291726,-122.783489357006,1.54422837667735,stable,stable,1,0.511846214661202,0.164726869301852,0.11239031256688,0.9612005956313,0.356671457251337
7,1.91042152554,2.52830243110657,-1.06952637995464,-1.56720869149061,1.91042152554,-0.0501671473086447,0.00801083131686826,0.0508027173237276,-0.062550968280688,-0.130517336139113,0.14753649524494,0.00951597903453293,0.125571347093713,0.0443325894522871,15.4321473077764,1.23319732819993,1.32260684842107,0.177074060981178,0.240244388633272,0.15535348715548,0.475283748637182,0.156388196546962,0.0395555266460615,NaN,NaN,NaN,NaN,1.96867067391655,-123.586570068552,2.19557786577634,stable,stable,1,0.518312258034456,0.148337035261829,0.172891914160375,0.891381650978818,0.330954005708676
8,1.91755726467184,2.76693487167358,-1.11520822529502,-1.54524031948352,1.91755726467184,-0.0421165934928119,0.00550928971552865,0.042475401359003,-0.0672369772220304,-0.126882614139391,0.146282748968852,0.0094331740318061,0.121905286710056,0.043174807835281,15.4673556984248,0.923938922814328,0.844516825277481,0.175998293400334,0.240277924724385,0.145263609815363,0.433307264228042,0.159457237769807,0.0372737095064217,NaN,NaN,NaN,NaN,1.96461919299708,-125.030810267647,2.11843075878043,stable,stable,1,0.519983565479548,0.198897118491209,0.203762230732126,0.89810584385054,0.335438395637617
9,2.62781419078509,3,-0.826877856077411,-2.46114712860076,2.62781419078509,0.00639672533859651,0.000177741464783482,0.00639919425285293,-0.0443602868154686,-0.315344440292331,0.32061462118228,0.0206907866611781,0.194230383513154,0.072752665716771,15.3935436802596,2.10066538583037,1.79710157159408,0.0262182213875995,0.0850950309688457,0.12592820322713,0.51062986210008,0.000177214221958578,0.00521426990388705,NaN,NaN,NaN,NaN,2.98365709536118,-106.900241715489,2.00633071884077,stable,stable,1,0.715300984019378,0.0849149926863777,0.0529238556351207,0.956265577497865,0.344031909676831
10,1.84562711650822,2.5615713596344,-1.10424110915693,-1.45638252000529,1.84562711650822,-0.054609327680056,0.00356800413073986,0.0547257647104607,-0.0675821935947331,-0.113815459284399,0.136617638274466,0.00881049790669879,0.15120101115338,0.0515276518807032,15.4527514384071,0.994186882991917,1.07242850199695,0.175898595141833,0.241362964830422,0.160047347604669,0.377015746129552,0.156681592125052,0.0415992954066473,NaN,NaN,NaN,NaN,1.92399487038037,-126.353098118705,2.42991665837156,stable,stable,1,0.502472761445001,0.171120511566974,0.187435586618382,0.895813010118456,0.328867845509036
11,1.86835836472154,2.66297817230225,-1.16326262587747,-1.43682133349122,1.86835836472154,-0.0469582234018244,0.0181283321506592,0.0503359828713046,-0.0753932487312821,-0.111276952532806,0.139565670788607,0.00900219781095848,0.152486129928149,0.0520473774461156,15.4178924364779,1.20232877622781,1.36827800649969,0.176707137133346,0.240283266474233,0.173499179778139,0.506375667839674,0.156669034310679,0.041609152218621,NaN,NaN,NaN,NaN,1.90759543141243,-127.844704273722,2.35059147232588,stable,stable,1,0.508638372748302,0.188017720232064,0.197571914861867,0.891448806711896,0.322889253431938
12,2.63259348948797,3,-0.788285069965695,-2.47788615807999,2.63259348948797,0.00668574506383189,0.00373985892674467,0.00766066131939693,-0.041397935394057,-0.319425626103367,0.324102498431272,0.0209122582749334,0.193673943354597,0.0727407637988324,15.4464931812357,1.97363613454133,1.81142450737725,0.0262708531496666,0.0719939849300153,0.126129953014467,0.542413839004998,0.000395276561660023,0.00516382537464582,NaN,NaN,NaN,NaN,3,-106.299635778902,2.02754228966701,stable,stable,1,0.716573083289891,0.0840709194404304,0.0524959848177965,0.957124811238664,0.343942243104681
13,1.97089927374911,2.75629067420959,-1.03644675194948,-1.66101632167037,1.97089927374911,-0.0431584189400933,0.0085447495026645,0.0439961574398479,-0.0590698215418515,-0.146323492766232,0.160345618537886,0.0103390229413021,0.136634713021021,0.0482277299652178,15.4933467993734,0.800389057802784,0.857481677318176,0.176124861169603,0.2403034730206,0.132812378701777,0.382846142925934,0.159534408187213,0.0363854406129232,NaN,NaN,NaN,NaN,2.02726066309477,-121.319262228342,2.2274574436426,stable,stable,1,0.535218685659473,0.184779027300914,0.195002667110878,0.898911442210677,0.340972276132544
14,2.66177598860464,3,-0.730903915087026,-2.5224933723144,2.66177598860464,-0.0275930037058475,-0.00538524037556425,0.0281136028892336,-0.033923832245929,-0.327104766234837,0.330529471531927,0.0213311401802547,0.205416758592967,0.0765568257040685,15.4014242961823,1.98833754116467,1.7220095796515,0.0628970147850408,0.24033300562512,0.134345858709289,0.516206947898402,0.00188838784035158,0.00794862221215826,NaN,NaN,NaN,NaN,2.96211416560549,-104.652706865072,1.75030320537653,unstable,unstable,0,0.725118295435383,0.0812545630936499,0.0524824294179391,0.939398765229638,0.340290729462538
15,1.74962569986071,2.537353515625,-0.955076748051937,-1.4383510361201,1.74962569986071,-0.0578213424100561,0.00860864037864313,0.0584586719595114,-0.0532497745250368,-0.113024080000328,0.129361688454352,0.00834186920712201,0.169116026829351,0.0565741164937908,15.4764854681507,0.904582029795999,0.922853047552483,0.176557116756635,0.240219875375673,0.1597691856499,0.454361671620225,0.159580253512221,0.0368228659673728,NaN,NaN,NaN,NaN,1.78867162897179,-121.8764556945,2.20498318523413,stable,stable,1,0.477881676594947,0.187956181739543,0.197088399239313,0.897363023156801,0.328991473044489
16,1.75699898997943,2.70503568649292,-1.00368968969632,-1.41304010865298,1.75699898997943,0.00870621885677954,0.00701536757923455,0.0111809493807064,-0.0583487658673952,-0.108659044582447,0.128329349672513,0.0082792232851145,0.18281906681389,0.0606411763437471,15.456310440022,1.69580920181087,1.61419389679865,0.0170698666136505,0.0526462531890143,0.116878700342029,0.463819491231253,0.000223533819351896,0.00723879775726631,NaN,NaN,NaN,NaN,1.79698325918466,-123.928221238646,2.36639804929133,stable,stable,1,0.480661299263263,0.215358097435332,0.131946496918907,0.965457899489814,0.348053910959098
17,1.86254186370746,2.56586885452271,-1.01903286710653,-1.54533922580017,1.86254186370746,-0.0356778454058363,0.0028253873867583,0.0357895440972361,-0.0563329689470048,-0.12588715939123,0.140093149338139,0.00903350667864278,0.118612229073525,0.0419071233971076,15.4876881466373,0.841506596804897,0.980218424321315,0.177208618255458,0.240277064002465,0.151090562633109,0.420906235036135,0.159495522051059,0.0355443834043401,NaN,NaN,NaN,NaN,1.90606506718967,-122.683382350962,1.61066581226067,stable,stable,1,0.50505925500141,0.164809989351257,0.182698122628965,0.897082137134851,0.332848638829729
18,1.829537563178,2.88129186630249,-1.04295892181833,-1.47379264939268,1.829537563178,-0.0580488020410067,0.0231562033301507,0.0624969852957986,-0.0632430204528288,-0.120376619052898,0.141491808223873,0.00912404587332156,0.183302493647728,0.0613775802056434,15.4700063045227,0.910474474088527,0.859882369573264,0.176611518900224,0.240268388959794,0.129657052947083,0.415648499838398,0.15953043221789,0.0377934343646408,NaN,NaN,NaN,NaN,1.87952489310621,-124.36494621675,2.0545666612686,stable,stable,1,0.500152199555263,0.248102498840573,0.233506980665093,0.897784293921117,0.34237464313463
19,2.6155262474219,3,-0.777135973064258,-2.46373722860359,2.6155262474219,0.0063843538678294,0.000420183774753656,0.00639816604303409,-0.0404759156015804,-0.316279670344307,0.32089072878072,0.0207068951671779,0.197519660215167,0.0737507246815746,15.435296102188,2.06682771503605,2.15322609984135,0.0152059236052495,0.0579394847403821,0.141284708847798,0.461412959254766,8.0987369801785e-06,0.00587273458386365,NaN,NaN,NaN,NaN,3,-106.031594526481,2.47266976069818,stable,stable,1,0.712223810915488,0.087679591437962,0.0547468941501128,0.959239472509053,0.337206796067645
20,1.86953009634602,2.99538612365723,-1.00780045010714,-1.54424621976991,1.86953009634602,-0.0751353718245983,0.00474125349480854,0.0752848164235172,-0.0598587553473142,-0.1309207797514,0.149038894503732,0.00961335072856679,0.184826338117472,0.0621772469452382,15.4327833409608,1.27397990999522,1.25590927398697,0.177558322517519,0.240295044546906,0.174174569378993,0.467041263594122,0.159476280239308,0.038000463800283,NaN,NaN,NaN,NaN,1.95533603544456,-121.682915799118,1.6541387943469,stable,stable,1,0.510976808414652,0.267119822489333,0.244968590739456,0.891343138009952,0.322589080276003
21,1.93485307936766,2.94495034217834,-1.06585455244461,-1.57980652727939,1.93485307936766,-0.0735455054017283,0.0155691067578773,0.0751753846018351,-0.0662163959684473,-0.137360416592735,0.158751666688986,0.01023604988659,0.193570426205972,0.0652363627824045,15.4983760832477,0.741473557744784,0.881442312235294,0.17582959123237,0.240310118361574,0.14709194890593,0.485940923853665,0.159545233750277,0.0383329766098222,NaN,NaN,NaN,NaN,2.01006102178809,-122.843348050567,2.05163275212446,stable,stable,1,0.529008093721189,0.241054037976074,0.229480679785299,0.899333722548257,0.334625800486253
22,2.63066697359085,3,-0.74338024122523,-2.48735471125625,2.63066697359085,0.00806291892504891,0.00249986493117339,0.00844156302268854,-0.0384481270084375,-0.322033424452103,0.326216149159892,0.0210574996176462,0.2018361641594,0.0752910989801722,15.393353426256,2.38565802849761,2.29013598177037,0.0204117676236903,0.0749919542762477,0.149124140237512,0.526931508565799,0.000298653746269146,0.00641312741693557,NaN,NaN,NaN,NaN,3,-105.373889448931,2.25309214964032,stable,stable,1,0.716569412753595,0.0846475508295515,0.0532533118295038,0.953055734678906,0.333722604338883
23,1.68847219068177,2.55073571205139,-0.813600662882658,-1.46497372033572,1.68847219068177,-0.0384971863373757,0.00319090668715306,0.0386292019252371,-0.0367045509671057,-0.113935862005105,0.121396296081962,0.00782834531976225,0.118895385798817,0.0411484574634786,15.4673338721327,0.967647160941417,0.971092155014792,0.176369868248215,0.240227325914215,0.172887390302905,0.441805272355913,0.159489037069629,0.0365075387784913,NaN,NaN,NaN,NaN,1.75191981509009,-118.497538474994,2.23984011802359,stable,stable,1,0.458488942341167,0.201091312661125,0.20481427271879,0.896582114107665,0.323161159865376
24,2.68119874281731,3,-0.629490976914457,-2.57148408170091,2.68119874281731,-0.0274077632063473,-0.00711834230673055,0.0283170669591855,-0.0270289864738071,-0.339239570641336,0.341424324641573,0.0220245845240247,0.196832907023267,0.0744670812737973,15.4342844505123,1.52921550793657,0.888764024232961,0.0622774517060802,0.240202080266039,0.101522151860246,0.408912045945443,0.0018517552724204,0.00795250322653136,NaN,NaN,NaN,NaN,3,-102.185830974197,1.74060014073246,unstable,unstable,0,0.729879747672709,0.0769217451419561,0.0498678687835739,0.949862863537056,0.354879043617668
25,1.73314310579884,2.46867370605469,-0.942986617573981,-1.43412534095584,1.73314310579884,-0.0487109011286194,0.0114066463169928,0.0500286264948689,-0.0500217223499924,-0.110877978572904,0.124708436667274,0.00804138453565912,0.145317351242159,0.0492241745476091,15.4763674398841,0.806383965138908,0.794614114838279,0.17627898971653,0.240228454937238,0.137746765926784,0.43300504201784,0.15955680875971,0.0358456422397876,NaN,NaN,NaN,NaN,1.79680657025774,-122.144595008979,2.25603733538819,stable,stable,1,0.472016329789212,0.174666299914959,0.188748696171799,0.899281234513343,0.338779215143652
26,1.87994526261869,2.72963857650757,-1.06150349602933,-1.53608446275213,1.87994526261869,-0.00339451803416118,-0.00518712904429267,0.00619911771193208,-0.0616978667635029,-0.12399461248319,0.141172438249981,0.00910612791494947,0.135213105008724,0.046938221043082,15.4539443445985,1.51565453392074,1.53476813991778,0.0160513447795275,0.0472999850153364,0.120194756569648,0.432007203968919,0.000142205321613542,0.00600356412103076,NaN,NaN,NaN,NaN,1.89015622586425,-123.159855511628,2.37911083942928,stable,stable,1,0.510706380906933,0.192317500538853,0.117636816914302,0.968006720887219,0.346580108191268
27,1.74060189723969,2.45976305007935,-0.822865792803654,-1.51984690997353,1.74060189723969,-0.0541119223896926,0.0103731575110506,0.0550972099244343,-0.037878691153361,-0.122705208545502,0.130034287703745,0.00838493134928432,0.125510586691686,0.0435226279520049,15.487307971475,0.903075821493351,0.737202330759131,0.175609571501597,0.240207754818496,0.120480069185074,0.477397782826146,0.160075989730124,0.0336307592187148,NaN,NaN,NaN,NaN,1.77620387229689,-117.832865156267,2.2361858477236,stable,stable,1,0.472865031520984,0.171912414541737,0.186521700038165,0.899307314481504,0.346453302584412
28,1.67708058285233,2.62761616706848,-0.947614434895821,-1.35557406859924,1.67708058285233,-0.075017596198313,0.0101690899549138,0.0757036995785825,-0.052601564281903,-0.103299003136964,0.120584906899842,0.00777553043970466,0.177105876822207,0.0585746343544554,15.486081660151,0.853612445534551,0.805101478375156,0.174074629763854,0.240254681767785,0.148134906000579,0.453498908417466,0.156725114856157,0.0437078435528287,NaN,NaN,NaN,NaN,1.77693740749085,-123.63065316624,1.62021039931012,stable,stable,1,0.458936415631513,0.22774951803804,0.222199078717498,0.899929932858783,0.334162263999743
29,2.62420006513596,3,-0.51551171087321,-2.54007730092949,2.62420006513596,0.00638273257906285,0.00411046684911397,0.00759178588301166,-0.0230349762777229,-0.335547321473706,0.337201948914841,0.021758599770732,0.199491426886042,0.0750784479053248,15.4467656238368,2.00351622943696,1.90997933915345,0.0139326055397548,0.0721581635510855,0.130935185631026,0.503279442663892,7.56632244349354e-05,0.00486261765792254,NaN,NaN,NaN,NaN,3,-100.208461528465,2.48716802614227,stable,stable,1,0.71480237361732,0.0859468127562954,0.053369940356407,0.962284803476912,0.341806584163989
30,1.83052110834187,2.64776206016541,-0.935824807063807,-1.54341116058588,1.83052110834187,-0.0677527155122095,0.00181198997799438,0.0677769412629306,-0.0526784840657346,-0.129805120921097,0.144542436760375,0.00932072012173326,0.179531096813732,0.0603838331293328,15.4651876602939,0.869884814230162,0.668749096154384,0.176338421635583,0.240241958086262,0.10184812398598,0.4024210769951,0.159532934622923,0.0349872392043404,NaN,NaN,NaN,NaN,1.90894849737311,-119.745808657761,1.64935706361428,stable,stable,1,0.500215728850364,0.196304986725167,0.201409150972119,0.899741522743473,0.354734167117342
31,1.89515205224355,2.57703495025635,-0.936337430469088,-1.63423797250994,1.89515205224355,-0.0528194206941876,-0.0124588374796846,0.0542689030091338,-0.0482645249062909,-0.140704195507762,0.150603291322712,0.00971085339841073,0.12516966263262,0.0443484961686737,15.4922987515071,0.817342052959069,1.0224444951875,0.176583569591105,0.240266396660147,0.160724113547727,0.494777890378933,0.159513276905484,0.0357680640524022,NaN,NaN,NaN,NaN,1.95935225919259,-119.13516242978,1.54368942132098,stable,stable,1,0.514243579832015,0.163372950937887,0.181925129044831,0.89725274946901,0.328567060645455
32,2.62331297715505,3,-0.644640823725125,-2.50756160150246,2.62331297715505,0.00612859442742338,0.00161503170650121,0.00633782273883146,-0.0314659166242345,-0.327083838170505,0.330036954974726,0.0212969621612522,0.201675894478004,0.0754106418562779,15.4573564760227,2.02427688588426,1.82634710535557,0.0342648789716102,0.0522499765231415,0.138490203998138,0.432472841927346,0.0260418126449176,0.003614426241092,NaN,NaN,NaN,NaN,3,-103.01941117063,1.51334710828501,stable,stable,1,0.714632255612602,0.0859165143088996,0.064438384353579,0.952612657725882,0.33844879822305
33,1.88075425754599,2.56811213493347,-0.810897239398358,-1.68332632997166,1.88075425754599,-0.0498528393281746,-0.0124184639577409,0.0513762964425279,-0.0367685606871848,-0.148899092307301,0.154693896988946,0.00997512885796927,0.117534200764909,0.0422428504300512,15.4787900610785,0.940030378743174,0.747010746819752,0.176749985326672,0.240230590652862,0.157725683519073,0.409166949982089,0.159499042972004,0.0372322592321124,NaN,NaN,NaN,NaN,1.93692079365451,-115.089103932968,2.10925904219208,stable,stable,1,0.509983038764941,0.164074510093313,0.182872172956233,0.898369684207241,0.329899696213745
34,2.63974976994826,3,-0.572747711174977,-2.5444091821855,2.63974976994826,-0.0236339212704348,0.0010960361690055,0.0236593222620784,-0.0254456701295526,-0.339387488554138,0.341350674383481,0.0220210310654006,0.200432899176766,0.0755445914988103,15.4607388108591,1.64363259807868,1.33499613906712,0.062799420830555,0.240442656771558,0.120149540578764,0.445151670066282,0.001926104408123,0.00807140256519292,NaN,NaN,NaN,NaN,3,-101.157933097739,2.08803124133666,unstable,unstable,0,0.719042190285965,0.0853938441763552,0.0550274083876753,0.945196778078577,0.346600204187216
35,1.80824564833219,2.38818621635437,-0.809902238887161,-1.60403943410103,1.80824564833219,-0.041467224790356,0.00267518091717145,0.0415534273526687,-0.0366501178008773,-0.135118429368955,0.14133573863564,0.00911424573036439,0.114639079702408,0.0407716959219773,15.4795065173025,0.99373621782383,0.959531045930703,0.176633889041712,0.240232350081682,0.174053499525704,0.467118353813122,0.159561137833678,0.0390964228402235,NaN,NaN,NaN,NaN,1.86137587595629,-115.841095627455,1.53349394352638,stable,stable,1,0.490353178739647,0.138104756152979,0.167995795984008,0.896335955549644,0.322642889099687
36,1.96486863772074,2.96530652046204,-0.899773365248438,-1.71727628627923,1.96486863772074,0.00750697745591943,0.00342214110918334,0.00825019759126078,-0.0492718835185011,-0.159556641774424,0.170652254118486,0.0110076702514916,0.201793103587037,0.0682433002521553,15.4749007775967,1.5439409490401,1.67999916894412,0.0337736043947775,0.054671503668215,0.110280223965494,0.444881355619839,0.0261572568063462,0.00665007696828325,NaN,NaN,NaN,NaN,2.00134863438598,-116.022448666907,1.5,stable,stable,1,0.537613630109296,0.226611059841855,0.150010293181249,0.957782239732735,0.350986567126447
37,1.78977212451753,2.71462082862854,-0.809104782233386,-1.56741018794172,1.78977212451753,-0.0650818674210855,0.00472341344971087,0.0652530466846771,-0.0407810943098873,-0.134589287215801,0.143939879160293,0.00928395895975006,0.18412903082425,0.0617374805191001,15.4492940699994,1.18770640833845,1.16959573458255,0.177749060232928,0.240280308538623,0.162210885673883,0.460890091877303,0.159525837480797,0.0341716841941397,NaN,NaN,NaN,NaN,1.84847057739295,-116.145839673518,1.5,stable,stable,1,0.489620062641828,0.220054016983834,0.215358849383675,0.892603810189157,0.32790627303383
38,1.94598981636722,2.62802124023438,-0.751055226778999,-1.7809529355305,1.94598981636722,-0.039063722340124,0.00647981870272689,0.0395975056472818,-0.0322631667496204,-0.167510296724093,0.171762606614377,0.0110780978356813,0.129424241817841,0.0465819410303292,15.4349352790752,1.24264151594925,1.10536783222195,0.175902345214885,0.240239974882798,0.162658717411303,0.516403201767823,0.156694126219523,0.0430834540531918,NaN,NaN,NaN,NaN,1.9993932608471,-112.620106358339,2.25274090888319,stable,stable,1,0.528247005903991,0.160716613072111,0.181738512283407,0.893600182514069,0.327707236706088
39,2.61429041981697,3,-0.617768578167668,-2.50800399888158,2.61429041981697,0.00589518924789866,0.00380232494489058,0.00701505033874149,-0.0288387142112502,-0.327699135817259,0.330093964838432,0.0212974230464281,0.201195694192698,0.0752669043903089,15.4490401460049,1.90666303720022,1.57394390753448,0.0335745669216703,0.0622967632439274,0.114909438336119,0.503385693420368,0.0178361700235506,0.00647706773681562,NaN,NaN,NaN,NaN,2.9987372183553,-102.731971335258,1.69503100612131,stable,stable,1,0.712197492829254,0.0880707481032841,0.0631249328979461,0.955865090544821,0.348929138517281
40,1.90383374366631,2.68745160102844,-0.291913910207272,-1.86321157916556,1.90383374366631,-0.0568508682199566,-0.02561269717371,0.062354081453222,-0.00843966832970286,-0.184480004420736,0.184882948080721,0.011921932548102,0.162066609203788,0.0569653355448079,15.4889593138812,0.944495847836319,0.637218529149374,0.177013923476749,0.240253039151054,0.131457232846278,0.387763824202173,0.159454401413914,0.0376473731597993,NaN,NaN,NaN,NaN,1.96262077332345,-97.9255988407311,2.25765290693878,stable,stable,1,0.519082065419976,0.187745599506238,0.197205936430662,0.899065282442452,0.341574563179432
41,1.8881994177695,2.69492483139038,-0.268594053872761,-1.85705270657573,1.8881994177695,-0.0407764470252245,-0.0181590599338466,0.0446370932037692,-0.00632711995913854,-0.181677535282177,0.181906683175458,0.0117301671140987,0.127995841306201,0.0466098693717293,15.4843562634598,0.995337044469991,0.788832207685033,0.176869429962707,0.240243057303205,0.164861304726152,0.481708577874095,0.159515009421612,0.0384504880860381,NaN,NaN,NaN,NaN,1.94919332297993,-97.076725643542,1.99019947586162,stable,stable,1,0.51284181861288,0.189696685152055,0.198695566501822,0.897546812323142,0.326728309010599
42,2.61932096799215,3,-0.629826435870501,-2.5097940206487,2.61932096799215,0.00694814065518508,0.00408478574311361,0.00805990900267367,-0.0297420227418335,-0.327798224077317,0.33036407886203,0.0213117706870262,0.191770281419163,0.0724493239066673,15.4640874930518,1.65859547728097,1.22778761077057,0.0309294066428805,0.0478883731325643,0.103344040501361,0.368338455414592,0.0117262579736739,0.00591704019040798,NaN,NaN,NaN,NaN,2.97766096785849,-102.83550377438,1.78956229918626,stable,stable,1,0.712975456245906,0.0871304321855904,0.0596415805002062,0.961856572415298,0.354069315332728
43,1.82071237012643,2.5729067325592,-0.229423747977849,-1.79405867025243,1.82071237012643,-0.0417776024181785,-0.0187926250242373,0.0458097240671998,-0.00512543126555611,-0.170260629345439,0.170421403786437,0.0109892567516443,0.133106249128047,0.047624354464565,15.4812588549418,0.880678580504285,0.451429182878094,0.176142713070502,0.240212164030268,0.111127160061356,0.395252802596509,0.159540113498507,0.0361324756976566,NaN,NaN,NaN,NaN,1.87761184680711,-96.9149867627548,1.73238146653039,stable,stable,1,0.495048169593293,0.177642180959695,0.19063110775814,0.901462082466745,0.350610151083842
44,2.54722623505661,3,-0.630785317605396,-2.43263383673607,2.54722623505661,-0.0288900148720869,-0.00367707425259651,0.029123080784294,-0.0280267837693075,-0.310626281284903,0.313165193081575,0.0202033370628771,0.217242607404243,0.0793151181652868,15.4596346908633,1.69140277089982,1.19783923151459,0.0632846645682149,0.240413898009024,0.111339980672139,0.412270565138178,0.00187780747980196,0.00921954589105377,NaN,NaN,NaN,NaN,2.70268226585959,-102.84402520654,2.05398784846263,unstable,unstable,0,0.695123352981486,0.107213328589384,0.0685151403979659,0.945656480554065,0.350515564145716
45,1.68867029531582,2.36325430870056,-0.228173986074086,-1.66109229015295,1.68867029531582,-0.0369127543939768,0.000549620727530291,0.0369168460176947,-0.00477787469718993,-0.145229451599473,0.145395154876243,0.00937526581278118,0.111881834584595,0.0401272364443252,15.481282682849,0.834054963761075,0.486836121482072,0.175877390866496,0.240180294715555,0.107086945086884,0.366646601957174,0.156689086066784,0.0386254770774032,NaN,NaN,NaN,NaN,1.74484723470437,-96.8322370152764,2.0008918952676,stable,stable,1,0.45833752603975,0.158549491448144,0.178814916704493,0.90168287461127,0.352405802183607
46,1.65623690605164,2.39382433891296,-0.213580591749735,-1.63086346758715,1.65623690605164,-7.2970689781687e-05,0.00211110615161077,0.00211236689638331,-0.00440154088096079,-0.139265867411933,0.139422699408352,0.00899524868077617,0.115470014695841,0.0409376784852956,15.4637489551846,1.89039329384206,1.8752483339328,0.0244771104784985,0.054911433740246,0.128790115351126,0.453929036009815,0.000304615139678958,0.00409999800167012,NaN,NaN,NaN,NaN,1.71876069037497,-96.5690723186371,2.05074202006509,stable,stable,1,0.449850710644162,0.166344439658136,0.101432956665649,0.95817426054252,0.342759948732833
47,1.75677899170566,2.42486906051636,-0.13557204744216,-1.7409009174239,1.75677899170566,-0.0409313507748321,-0.0131189055283411,0.042982335424147,-0.0024423711188928,-0.158958071236003,0.159015892760165,0.0102536803085599,0.112203223520265,0.0408385432720715,15.477727426603,0.84566009785273,0.478002082824364,0.176362796195002,0.240200107497608,0.0887618123800112,0.363754289506119,0.156825203703357,0.0433061272685253,NaN,NaN,NaN,NaN,1.8330973949862,-93.5355183886098,1.65238114940763,stable,stable,1,0.476642106442591,0.158200360310167,0.180367989364025,0.901418399054322,0.360550305608884
48,1.71972306772154,2.65954566001892,-0.196540630689823,-1.69274569036846,1.71972306772154,-0.0461851577999889,-0.0209450076124237,0.0507125442557792,-0.00473285042938166,-0.151863725337111,0.152047483476962,0.00980507328411475,0.13136750910603,0.0462738040306895,15.4645817721208,0.996934910166361,0.668063040496815,0.176365081659616,0.240215377699757,0.120092148759217,0.410974491167034,0.159433024364909,0.0349077382157083,NaN,NaN,NaN,NaN,1.76093856199151,-95.8152911333806,1.6699760807232,stable,stable,1,0.467847578865216,0.220757383047136,0.216007274755772,0.898735332414981,0.34662571166257
49,2.62281491756439,3,-0.665890833527785,-2.50366187585884,2.62281491756439,0.00481226845486678,0.00403712494173778,0.00628142543352281,-0.0321936403017202,-0.32642244457131,0.329368998361254,0.0212494080759564,0.196367196221285,0.0737847445195549,15.4466019687353,1.73996400819493,1.42914755130386,0.0338974480917666,0.0492010598148668,0.110009192511216,0.385411409609989,0.0268578691296648,0.00626114898711849,NaN,NaN,NaN,NaN,3,-103.690253195533,1.53209160603903,stable,stable,1,0.714174260254416,0.0860182382108243,0.0658245551006513,0.958151113700912,0.351107025550571
50,1.64512585215017,2.43335175514221,-0.168605574752504,-1.61557400695837,1.64512585215017,-0.0585891217795252,-0.0129377718611809,0.0600005927606386,-0.00442041716048089,-0.141306475867655,0.141524416448829,0.00912591015659996,0.154452306192074,0.052723828967242,15.4835884855836,0.922003703367733,0.71497305809345,0.177339786393499,0.240211881659701,0.159825001192465,0.394442258438748,0.159506692718217,0.0360734743219552,NaN,NaN,NaN,NaN,1.72627812567413,-94.411640590645,1.85975253324927,stable,stable,1,0.449244993033494,0.188350936845993,0.19702005256408,0.898468146534627,0.328966666136682
51,1.5766332019754,2.32576465606689,-0.128561348816846,-1.5553156377719,1.5766332019754,-0.0526450006762462,-0.0278080786069111,0.0595380998354004,-0.00294629394779545,-0.130074155869066,0.130185055480208,0.00839461463503628,0.13074640873592,0.0451001528653013,15.4806598749019,0.873428968772968,0.879805961640017,0.176661519569858,0.240168514543945,0.147537347901124,0.439355634425338,0.159514165732956,0.0358412948434138,NaN,NaN,NaN,NaN,1.64198518080473,-93.7945426045898,1.63818588495059,stable,stable,1,0.429455551099834,0.179469895473743,0.191610320179326,0.897893822904683,0.334427845377278
52,2.62721930100368,3,-0.646972014575218,-2.51361649220638,2.62721930100368,0.00661525986007581,0.00456329689697716,0.00803650058086799,-0.03087904048002,-0.32859164364107,0.331347476282299,0.0213766582175134,0.19494530347714,0.0734472517954015,15.4325882166675,1.79055103844234,1.57468366261089,0.0212175369111977,0.0663932148398099,0.118848718505878,0.479198770903642,0.00567300861264915,0.00884346784639029,NaN,NaN,NaN,NaN,3,-102.899260755177,2.12541981331784,stable,stable,1,0.715281263960061,0.0853490157139986,0.056946553079173,0.962950101750412,0.347178347330721
53,1.68073785465036,2.55972623825073,-0.131305703992554,-1.66484137387141,1.68073785465036,-0.0443363847973254,-0.0241455501323773,0.0504848750428448,-0.00227086698421914,-0.148818351572547,0.148873574492275,0.00960023465841929,0.120993748477651,0.0430182888041888,15.4854698229972,0.981250361543951,0.876757054907632,0.175456290881127,0.240191503879567,0.155039308652529,0.385292862923443,0.158819903500937,0.0371015729821399,NaN,NaN,NaN,NaN,1.76767167051157,-93.7767495596924,1.93612466446575,stable,stable,1,0.456800419000933,0.207027946734606,0.208294872903372,0.897673224858746,0.331093640598876
54,2.58962955987342,3,-0.525837324004705,-2.50384665500382,2.58962955987342,-0.0109251367023713,0.0204901700693434,0.0232208027732918,-0.0245648820418653,-0.341061209785865,0.342833577512887,0.0221165234603559,0.197835938694363,0.074832348030558,15.4576037396458,1.61390771011119,1.19306946335391,0.0626858269031538,0.24042799391455,0.121939458632507,0.387269113802144,0.0019504495590038,0.00669284594393118,NaN,NaN,NaN,NaN,3,-101.106544404973,2.3024073064274,unstable,unstable,0,0.705534352239024,0.0965904962035839,0.0612549263542482,0.946602265899769,0.345804685052219
55,1.61664120315694,2.4345109462738,-0.15509589332366,-1.59306813356505,1.61664120315694,-0.0480183147562562,-0.0137030149470206,0.0499352698067124,-0.00353243334214609,-0.13483046436284,0.134967412941239,0.00870465949224473,0.129570979787305,0.0449645555807629,15.4505566843441,1.15659824012035,0.968323172431379,0.177655953532354,0.240191381256823,0.141776319217366,0.437255302810484,0.159450648189614,0.0351650167523313,NaN,NaN,NaN,NaN,1.6954412846166,-94.4207914550518,2.49335852924966,stable,stable,1,0.440097231958005,0.193175491665857,0.199559528569483,0.894476212135202,0.336988302570059
56,1.70108960111936,2.71296453475952,-0.103689668246676,-1.67453500219224,1.70108960111936,0.00204619479094083,0.00691430303308594,0.00721072115365826,-0.00271293596499683,-0.151562479086976,0.151710502047624,0.00979046949490655,0.177620424063207,0.0601394558653966,15.411735617208,1.98814130698007,1.96797711853935,0.0324425874943809,0.0788259753043863,0.124453866868687,0.427971547760016,0.0119499359155984,0.00558659019164612,NaN,NaN,NaN,NaN,1.73280982852964,-92.1431804697514,1.77264327417243,stable,stable,1,0.465651784804908,0.228993825613874,0.144738865339896,0.952694918623728,0.344687170280584
57,1.60573146618953,2.36371040344238,-0.195666600472819,-1.57671217062901,1.60573146618953,-0.0441812928492782,-0.0183010947943214,0.0478217179585219,-0.00469877436496071,-0.132656215873994,0.132875837917313,0.00857054300487883,0.12945684808069,0.0448364345276221,15.4298717112554,1.23113613703022,0.93828222269232,0.177063236468108,0.24019938626265,0.145420165621709,0.405727734359545,0.159467224662515,0.0362010379285889,NaN,NaN,NaN,NaN,1.65239533729994,-95.8334835366937,2.41976217036921,stable,stable,1,0.437162344556067,0.179312575840953,0.191625881369015,0.894422951796697,0.335368815279241
58,1.61797064421128,2.30297231674194,-0.094812664256627,-1.59951374880943,1.61797064421128,-0.0500238294317578,-0.0261074485832133,0.0564267878098933,-0.0019090394731141,-0.13754953792944,0.137622643186712,0.00887515265738512,0.131913100176422,0.0457865369130963,15.4442578506122,1.07070469843041,0.857768557110808,0.176831910410836,0.240201693877414,0.130042072292824,0.451287707316995,0.159456253025134,0.0348101828354376,NaN,NaN,NaN,NaN,1.68060545220575,-92.4282145747537,2.28698259967849,stable,stable,1,0.440616145838961,0.164470287417879,0.182209866543472,0.896431754929615,0.342203523425411
59,2.53279463330905,3,-0.531172234944841,-2.4445479720194,2.53279463330905,0.00725175305553526,0.00813906722741208,0.0109010246174751,-0.0236574926329006,-0.313076774433271,0.314864114189335,0.0203118647301003,0.208899353764026,0.076888111440278,15.4581000939111,1.60365071267962,1.41731030185872,0.0329276118590238,0.0498848256994476,0.124122199874341,0.382017149297131,0.0214365402566269,0.0074688690596732,NaN,NaN,NaN,NaN,2.78982386220964,-100.41262924442,1.66654438419942,stable,stable,1,0.690789524503801,0.107119728685335,0.0765151408217042,0.959800071813401,0.344834577833626
60,1.6753508368054,2.31222915649414,-0.0781276304841479,-1.66238580296604,1.6753508368054,-0.0365135514861298,-0.0158417866904099,0.0398020306978765,-0.00136495212117828,-0.146136213806202,0.146172552859526,0.00942499636477745,0.12026527216051,0.0426770791034972,15.4982249863164,0.773392522093098,0.508825540975019,0.176032912980749,0.240216984170278,0.109454064068484,0.377058505695293,0.156745459326069,0.0413597693786363,NaN,NaN,NaN,NaN,1.72864210057146,-91.9462754292346,2.33972148495826,stable,stable,1,0.455295638968805,0.150594660891245,0.175061361261797,0.90190897301409,0.351353749302896
61,1.60431094599419,2.29782724380493,-0.186487013295245,-1.58391868041874,1.60431094599419,-0.0339478935993726,-0.00303553540807073,0.0340833383788615,-0.00338388184441829,-0.132284110920186,0.132381590036413,0.0085366224481084,0.112624441664071,0.0397629682128973,15.4610314750631,0.864268636185422,0.536118722407151,0.176368586995275,0.240180851891961,0.132368840531311,0.374496531699066,0.159462769202202,0.0355896870119117,NaN,NaN,NaN,NaN,1.6541677253945,-95.777639022521,1.6138085569463,stable,stable,1,0.435768845907696,0.162289779043542,0.181187913661738,0.900812662970564,0.341169404208306
62,2.59623263478279,3,-0.522087654575613,-2.50985736510799,2.59623263478279,0.00412857084093273,0.00253628683380463,0.00484539452386807,-0.0233526805522278,-0.328598866528035,0.330268289751797,0.0213104929075062,0.201736352386171,0.0754382507511056,15.4530027956185,1.9711420941618,1.83785529880385,0.0333705699380831,0.0539685438101448,0.129671100181981,0.409845360343123,0.0186872856802802,0.00578192654425658,NaN,NaN,NaN,NaN,2.96888331606625,-100.576107342626,1.67430376117454,stable,stable,1,0.707416352758966,0.0917359795032478,0.0654495667476615,0.953386878371943,0.34236839991912
63,1.54312486875625,2.15451145172119,-0.0722606240499371,-1.53105053112579,1.54312486875625,-0.0358008873553666,-0.00633509259999253,0.0363570754280666,-0.00122285035977628,-0.123807238031752,0.123838268712796,0.00798519785214418,0.104436094064315,0.0369204667157955,15.490885868674,0.757511339541355,0.415002017464218,0.176470477027294,0.240161151157002,0.123880429028226,0.345660170915808,0.159463243207375,0.0371274559431543,NaN,NaN,NaN,NaN,1.60300708299886,-92.1234906695166,1.93409126039266,stable,stable,1,0.418884058344825,0.144227444995591,0.170909912604203,0.902552156538452,0.344942031543011
64,2.67214334743322,3,-0.634943557202524,-2.55728022949356,2.67214334743322,-0.0285859136916014,-0.0067210914489978,0.029365413871585,-0.028132743252327,-0.335775893846292,0.338186255973004,0.0218155725781226,0.206445835709832,0.0772046515176353,15.4607543871456,1.54507614069931,1.19823420684217,0.0629489667045631,0.240279628884182,0.102912658087191,0.369647200553939,0.00185303860749805,0.00760514999842576,NaN,NaN,NaN,NaN,3,-102.201792877698,1.75594707211331,unstable,unstable,0,0.728012489619052,0.0791514060373169,0.0510799254271703,0.946970935345607,0.354261040850137
65,1.51076381790395,2.21224284172058,-0.142298027954856,-1.48837197314607,1.51076381790395,-0.0441928627175301,-0.0125390195547782,0.0459373064792176,-0.00312935408827908,-0.117407701155418,0.117533678172946,0.00757864128979365,0.127040146236397,0.0434170927737747,15.4944372624555,0.8005101948894,0.651014044651544,0.176717929394968,0.240164730509578,0.142116161103669,0.407829777400141,0.159477834282948,0.0344103451631981,NaN,NaN,NaN,NaN,1.55228808798252,-94.2268777224065,1.6766753439131,stable,stable,1,0.411553769995807,0.166254619879933,0.183144662173665,0.900236201991837,0.336837261731703
66,1.57670222063859,2.29307985305786,-0.129258321730333,-1.55610655598041,1.57670222063859,0.00385049495491182,0.00444168091095802,0.0058783365599947,-0.00274750824670604,-0.127960186290387,0.128062833004153,0.00826020783546762,0.134708490809142,0.04619469272757,15.4716780906319,1.45508681216681,1.47196920029662,0.0293490929548613,0.0468825665532798,0.102259146685437,0.380163051931748,0.00816184896948683,0.00513715747480159,NaN,NaN,NaN,NaN,1.60696450398557,-93.5145725727472,1.87799544418311,stable,stable,1,0.429692864049139,0.162262662330334,0.102853143092648,0.962327156281785,0.354551490362028
67,1.6972096779862,2.32362747192383,-0.115398163018919,-1.68176430371504,1.6972096779862,-0.0379435272711837,-0.0239778286061864,0.044884825124386,-0.00216965060069467,-0.149119357455096,0.149176102764253,0.00961959178757257,0.110012778707003,0.0397375478634016,15.4680896166805,0.936131137339249,0.505341192308151,0.175632847467321,0.240207432059734,0.111796628872533,0.338621139738068,0.156760129717114,0.0429192938718805,NaN,NaN,NaN,NaN,1.70472744872138,-93.0615211949791,1.6792793394987,stable,stable,1,0.460536757035666,0.149172888242105,0.174781917661835,0.900857722247681,0.350312609389986
68,1.56936515188542,2.48087120056152,-0.126127298217291,-1.54236788048576,1.56936515188542,-0.0555283997877265,-0.0190667804106205,0.0587106915153654,-0.00311203077047073,-0.130355495489078,0.130512034419782,0.00841587951420162,0.170470840888479,0.0570323679264849,15.4857746943293,0.89552973340309,0.784829116532943,0.17619146377102,0.240224616901752,0.129558843685317,0.435978706868415,0.159475717184463,0.0372848558886378,NaN,NaN,NaN,NaN,1.6346567991892,-94.1375227104005,2.11511853382648,stable,stable,1,0.429903847421408,0.215852487729941,0.213947718578443,0.898701448579278,0.342418291695415
69,2.6198775835832,3,-0.393624948339264,-2.55722953553067,2.6198775835832,0.00603673066168582,0.00484055683047912,0.0077377714822057,-0.0166297134602172,-0.339965588936667,0.340883119282003,0.0219926311767226,0.196778100628865,0.0744282720123654,15.4546294608353,1.78325720226401,1.48713418523382,0.0208878976467739,0.0706809698678244,0.109502209302453,0.448783360645063,0.000131405994370945,0.00440680555910875,NaN,NaN,NaN,NaN,2.97762147861884,-97.4745863886534,2.1933020755511,stable,stable,1,0.713519676691325,0.0869461351321852,0.0538285584922428,0.963860118846273,0.351332351421132
70,1.6862922793343,2.3890974521637,-0.0681752096672207,-1.66841359587589,1.6862922793343,-0.0468730835732655,-0.0175248996673669,0.0500420630271935,-0.00148679206746882,-0.148199524996116,0.148271889168185,0.00956110569713351,0.1365869574317,0.0476688612175035,15.4794431575069,0.880288260243964,0.514449357237374,0.176048576239983,0.2401914161067,0.117779700532212,0.367955566987384,0.159531766453435,0.0339055914022523,NaN,NaN,NaN,NaN,1.74106956136438,-91.9626622500687,1.57656926468312,stable,stable,1,0.459211713399313,0.167305542108267,0.183615638542054,0.901017059171227,0.347653466430128
71,1.6233583441397,2.4749174118042,-0.201736308271272,-1.60042270392753,1.6233583441397,-0.0411795495869511,-0.0174209871294098,0.0447129298609163,-0.00406273501748307,-0.135181401724753,0.135320085259395,0.00872639046180589,0.111044976631919,0.0394219663128399,15.475856037389,0.915941459367925,0.707786883543869,0.177334629202784,0.240171729960846,0.129387914918855,0.387249880081607,0.159524925543468,0.0354261982837594,NaN,NaN,NaN,NaN,1.67774962146967,-95.9395937551425,1.54695571673605,stable,stable,1,0.44077995169982,0.199798160699015,0.203661117248984,0.898574819847158,0.342494260036064
72,2.62468288024267,3,-0.617464366543061,-2.51893194474746,2.62468288024267,0.00812519238698464,0.0057897451378984,0.00997696848182509,-0.0288272084895078,-0.329931424320622,0.332362499147872,0.0214382457993533,0.191677403953816,0.0725099932456922,15.4760602881677,1.53519352722198,1.50430244323434,0.0245318556574871,0.0600493871306312,0.100505806437576,0.446985756256452,0.000561531896488561,0.00687376027577117,NaN,NaN,NaN,NaN,3,-102.28205700878,2.09057638527802,stable,stable,1,0.714417433380516,0.0862754628337348,0.0545143966232031,0.963852318117671,0.355330752694411
73,1.68276741877705,2.50909233093262,-0.162547793015022,-1.65661654470479,1.68276741877705,-0.054154242181159,-0.0205692298274849,0.0579290528311272,-0.00404435477439515,-0.146684871545729,0.146855637660367,0.00947004294250992,0.145682771743417,0.0503338615827821,15.4675415266961,0.946139810180421,0.618578345872233,0.17593859867758,0.240205045229968,0.13837098150538,0.412081177243722,0.159425502641452,0.035186191368126,NaN,NaN,NaN,NaN,1.730743683828,-94.7490683234343,2.03589586627743,stable,stable,1,0.458804750657103,0.196543431587376,0.2015768165835,0.899736486577939,0.338501785997609
74,2.66862496299508,3,-0.609693825855191,-2.56026127075195,2.66862496299508,-0.0307662652120352,-0.00628144607702576,0.0314009496658281,-0.0255083651132221,-0.337329970910169,0.339377061447159,0.0218909240697713,0.202392732367777,0.0760414665591731,15.4411195311041,1.44270530351827,1.08898694439864,0.0632417417393801,0.240405346557991,0.104386425749418,0.433307606500594,0.00189438161729931,0.0108793032924907,NaN,NaN,NaN,NaN,3,-101.440236798872,1.58879639778387,unstable,unstable,0,0.72684161677719,0.0803162240981751,0.0529877921325499,0.948487261468106,0.353606033000259
75,1.68534240851531,2.36545372009277,-0.1913570008921,-1.65737500934445,1.68534240851531,-0.0514170380779818,-0.0171426890201152,0.0541994796243747,-0.00462773892947799,-0.145609484661937,0.145793736017459,0.00940159159416278,0.129687007849322,0.0454872164707106,15.4650900570977,0.92189471293541,0.631620487226006,0.176082990418171,0.240194694027638,0.143747804186985,0.444584201203217,0.156675063012723,0.0423390407557218,NaN,NaN,NaN,NaN,1.72844746755899,-95.0560971705178,2.34839250680312,stable,stable,1,0.458522085564892,0.162961616369398,0.182806345980889,0.899752313932503,0.336112087028007
76,1.75905014952024,2.5004563331604,-0.226431499112044,-1.72797849234147,1.75905014952024,0.00322683011713556,0.00351150853301761,0.00476897523397937,-0.00574031524986299,-0.157902734685321,0.158140711070736,0.0102020728282501,0.148743276034544,0.0517644337901384,15.4503205274219,1.70968277170323,1.75515000211557,0.0173854391087005,0.0559710606789966,0.118491527566417,0.399888132876577,0.000192517899045798,0.00578171726503858,NaN,NaN,NaN,NaN,1.80133462105751,-96.2777836497926,2.33724392205658,stable,stable,1,0.479432926630091,0.167690703445266,0.102802428219679,0.964083594365645,0.34733709885937
77,1.71304971865706,2.55121374130249,-0.135723645374637,-1.68963236385402,1.71304971865706,-0.0526861096077856,-0.0367743058100968,0.0642508810322327,-0.0032034349594882,-0.151975936802494,0.152100235854416,0.00980790789265328,0.134122444346767,0.0471022688288875,15.4828101320324,0.885053439830525,0.727927568959751,0.175813459554506,0.240243915862264,0.149506426675067,0.362892811621575,0.15729754060337,0.0395358289054123,NaN,NaN,NaN,NaN,1.75923009576763,-93.8331549635916,1.83774397740509,stable,stable,1,0.466233712074326,0.200366233284465,0.204506423073135,0.899419848010823,0.333552699255526
78,1.79315768480301,2.49321317672729,-0.208317490204927,-1.76801478111699,1.79315768480301,-0.0504095975374875,-0.0264545547617988,0.0569295265353268,-0.0046911448181627,-0.165088807627935,0.165244029249164,0.01065581861695,0.130039549129382,0.0464709377706795,15.478733143344,1.01518481381666,0.674163172802065,0.175262379094207,0.240231720359355,0.125623411842875,0.382867183230214,0.156742306156872,0.0396750301666264,NaN,NaN,NaN,NaN,1.84421771642335,-95.6415120879709,2.23284387234368,stable,stable,1,0.487469570168272,0.167949565547774,0.184860270206452,0.899095361986607,0.344167372514278
79,2.62756854812304,3,-0.407451741179616,-2.56281409475456,2.62756854812304,0.00612300998423036,0.00361653987798049,0.00711130170615815,-0.0173922584065477,-0.341589773684775,0.342594296262102,0.022104715611232,0.200185576655447,0.0755289739244965,15.3957880102133,1.83531561065546,1.93214488710089,0.0253491329144075,0.0684462097603605,0.124068490127606,0.465128329018721,0.000141987851361924,0.00522705311374286,NaN,NaN,NaN,NaN,3,-97.5958361626102,2.03530309719676,stable,stable,1,0.715790740951044,0.0851008153184446,0.0530243414895988,0.957723958203282,0.344858448832175
80,1.79058227652595,2.67365431785583,-0.237358610505263,-1.74899067667234,1.79058227652595,-0.0649164256776263,-0.0170028101173601,0.0671061686780417,-0.00719532684346201,-0.165756841877616,0.166167487366115,0.0107169728693106,0.179747687356427,0.0614261872154456,15.4454521774202,1.2010259991101,0.92977162544025,0.177095737618999,0.240281849674792,0.148011333140128,0.467488450205794,0.159465773483983,0.0360792006752967,NaN,NaN,NaN,NaN,1.84269174465958,-96.4089816842801,1.81989379434544,stable,stable,1,0.489773844516676,0.210994006890198,0.210589790574583,0.894710149854748,0.334217185271054
81,1.83255486423466,2.57003021240234,-0.196684085860362,-1.80925527035433,1.83255486423466,-0.0393369331753166,-0.0143612907698222,0.0418764967996931,-0.00434912036460536,-0.172845399333816,0.172974705849417,0.0111555773939234,0.132346111749473,0.0475127377005884,15.4752282515263,1.16215399585586,0.880310813362301,0.176723652827046,0.240229200766404,0.141405960765242,0.484567220624603,0.156734581040796,0.0401142037753525,NaN,NaN,NaN,NaN,1.90149022471625,-95.3637271300002,1.88650888401038,stable,stable,1,0.498183844669362,0.173609311084338,0.188412383637549,0.895590235799763,0.337152906326559
82,2.60145734111468,3,-0.414683830968874,-2.53368589643762,2.60145734111468,0.00585347312039834,0.00479454476734716,0.00756642630951508,-0.0178493831142051,-0.334015334095473,0.335090666104248,0.0216158192163577,0.200328860973264,0.0752297317434296,15.4656287037085,1.57239372577905,1.37863271319619,0.0328693858633792,0.0507548214740645,0.100251212073432,0.401829866253088,0.025843743652712,0.00508692292574178,NaN,NaN,NaN,NaN,2.91783086718893,-97.7855854258006,1.50020350728533,stable,stable,1,0.708767903979267,0.0910592764059414,0.0679714642884743,0.960378670762076,0.355443905745142
83,1.69159682429567,2.42046189308167,-0.305066714535027,-1.64656555332123,1.69159682429567,-0.046947763644426,-0.00570761926952729,0.0472934395972503,-0.00830792169656794,-0.144076215005375,0.144549353815449,0.00932150993052328,0.139329193154708,0.0483238148977787,15.4679519462623,1.00595891073228,0.695598079430784,0.176374764939154,0.240214031847799,0.131380263931619,0.38446708681601,0.159501329945848,0.0375787452406497,NaN,NaN,NaN,NaN,1.75027764965131,-99.5200046041142,2.30614272744968,stable,stable,1,0.4607572494584,0.172665104403012,0.188153540887067,0.898443241179142,0.341608771585947
84,2.60106745116208,3,-0.394726030892072,-2.53809296050753,2.60106745116208,-0.00649160830707798,0.0115799839452018,0.013275428677962,-0.0179292923043553,-0.340829358183071,0.341917699569191,0.0220599307213556,0.199884927423094,0.0754074297318771,15.3876112481296,1.73894662683676,1.53693018890927,0.0624890457753328,0.240414981328745,0.13108935142716,0.471268975566478,0.00193676782978024,0.00934498304346314,NaN,NaN,NaN,NaN,2.95681470906161,-98.270421652992,2.48794651632972,unstable,unstable,0,0.708699472922929,0.0921936520794927,0.0595751526019886,0.943016444988615,0.341738066032373
85,2.0319194363899,2.94030904769897,-0.449510921937452,-1.96312144061364,2.0319194363899,-0.0593922851637424,-0.0219190373817734,0.0633078805261626,-0.0150167672990045,-0.205268230774493,0.206283079071169,0.0133023181676362,0.165311506242961,0.0589050745902337,15.4729861298995,1.01686631572721,0.799263362849961,0.177311044827076,0.240267146285503,0.154734624155172,0.373148472496979,0.159448118815376,0.0375219935675951,NaN,NaN,NaN,NaN,2.10680641889481,-101.731697741666,1.56959736681352,stable,stable,1,0.553626197955353,0.215994107307672,0.214106656266522,0.897074887254784,0.331229055931035
86,1.96635282675425,2.94552302360535,-0.557045901805199,-1.85630195692993,1.96635282675425,0.00577256976425127,0.00658985665101653,0.00876063766880555,-0.0232990530031678,-0.186546769360702,0.189262638017244,0.0122101323926877,0.210331882361641,0.0716466573833736,15.4595704524896,1.72095277662268,1.39319727199212,0.0260749042609392,0.0539179836863133,0.113096039439506,0.432480397499147,0.00105624308453736,0.00532013534589312,NaN,NaN,NaN,NaN,2.01104491577433,-105.279667622794,2.0157180986754,stable,stable,1,0.538690085277808,0.221919411197444,0.135555682760606,0.962494226058985,0.349735093582442
87,1.97785634735004,2.64696550369263,-1.11513831718195,-1.61723684307021,1.97785634735004,-0.0487449544182061,0.00663319922481999,0.0491942060936971,-0.0674052676308268,-0.138869410137373,0.157323919151229,0.0101444911566105,0.139273899378708,0.0488833136232397,15.4895224893007,0.87461280030689,1.00621153926484,0.176869111924107,0.240284889924986,0.147454403874799,0.386780005088847,0.159432756541067,0.0365303389375872,NaN,NaN,NaN,NaN,2.06469467336038,-124.238920485483,2.05391772602383,stable,stable,1,0.537205022017991,0.159568497960927,0.179883861297365,0.89678753851274,0.334464709388978
88,1.95197081809141,2.68754458427429,-1.09001108866483,-1.59693222323274,1.95197081809141,-0.0501629349453839,0.0171785021049552,0.0530228344857644,-0.0656088706790889,-0.135693001151391,0.154685833809405,0.00997672289110278,0.145450943642268,0.0506189891164522,15.4341546693127,1.1862947571783,1.30039956797378,0.176880887262012,0.240246755809486,0.160533953935472,0.515586016690281,0.159522100705778,0.0347276333512179,NaN,NaN,NaN,NaN,2.00959748573364,-123.70580417537,2.21322939746302,stable,stable,1,0.530649349314334,0.175224950380205,0.188661911962447,0.892021243814228,0.328651576028679
89,2.63043918728828,3,-0.251440925795394,-2.58371053345393,2.63043918728828,0.00369171829400292,0.00502408542046163,0.00623459848541756,-0.0101029794041618,-0.346519646255892,0.347014531219329,0.0223936691400472,0.200889971005175,0.0759425596995856,15.4251517475575,2.05226880470633,2.0324823894509,0.0301079228182522,0.0558994104536731,0.156947178274164,0.428255400679261,0.00894882904174489,0.00843917072845761,NaN,NaN,NaN,NaN,3,-94.0907171926139,1.86179300067766,stable,stable,1,0.71663896188346,0.0842941925824626,0.0576225622571669,0.952851564922496,0.330245698544816
90,1.96374314090833,2.73327326774597,-1.07600830481196,-1.62667861955525,1.96374314090833,-0.0557893480385563,-0.00536932634720972,0.0560471321299316,-0.0636996854820215,-0.139603301270949,0.156178823869644,0.010073423693908,0.127014353292557,0.0451557025735026,15.4488500014129,1.23061528787972,1.19538966235891,0.17629364336068,0.24026207172337,0.176514385893607,0.426649682564326,0.156849459256211,0.0401865605494807,NaN,NaN,NaN,NaN,1.99637079272466,-122.311062912018,1.80498746619649,stable,stable,1,0.532695978090254,0.183419586095624,0.194375917183179,0.892791710853499,0.321549161825064
91,1.84637280497058,2.91336131095886,-1.10001968248366,-1.45489795931715,1.84637280497058,-0.0587074163823446,0.00706081785990935,0.0591304987898867,-0.0694117629737765,-0.117297549673744,0.141859572711741,0.00915146132364682,0.180268950587973,0.182484953880024,15.4127780693321,1.04303212321935,1.04555775840504,0.18030808392723,0.240324963581211,0.185529965337875,0.514161562865862,0.1594113924378,0.0352316994232073,NaN,NaN,NaN,NaN,1.94546366280019,-126.251978914843,1.65170660198071,stable,stable,1,0.528863072101492,0.250913005292177,0.234208837988424,0.893435608966479,0.317542237627611
92,NaN,NaN,NaN,NaN,NaN,NaN,NaN,NaN,NaN,NaN,NaN,NaN,NaN,NaN,NaN,NaN,NaN,NaN,NaN,NaN,NaN,NaN,NaN,NaN,NaN,NaN,NaN,NaN,NaN,NaN,unstable,unstable,0,0,0,0,1,1
