scenario_id,mean_wind_speed,max_wind_speed,wind_velocity_x,wind_velocity_y,wind_velocity,wind_acceleration_x,wind_acceleration_y,wind_acceleration,wind_body_force_x,wind_body_force_y,wind_body_force,mean_wind_body_risk,mean_wind_gust_risk,mean_wind_risk_raw,min_thrust_margin_n,mean_abs_roll_deg,mean_abs_pitch_deg,mean_abs_vz,max_abs_vz,mean_tag_error,max_tag_error,stability_std_z,stability_std_vz,mean_imu_ang_vel,max_imu_ang_vel,mean_imu_lin_acc,max_imu_lin_acc,wind_speed_cmd,wind_dir_cmd,hover_height_cmd,gt_safe_to_land,label,success,onto_wind_condition,onto_gust,onto_temporal_pattern,onto_drone_state,onto_tag_observation
1,2.04322238682079,2.73637080192566,-1.25798852526502,-1.59228543177402,2.04322238682079,-0.0569147269535801,0.0112975482615979,0.0580251733381617,-0.0855442644684595,-0.133251262264507,0.162112495535542,0.0104559912675627,0.127503397718609,0.130230321462001,15.441893181852,0.814445711182909,1.00694667603427,0.17656019739238,0.240279432032059,0.13178297340631,0.423933838610981,0.159423776304433,0.0367444882899995,NaN,NaN,NaN,NaN,2.0716688985117,-127.374480982322,2.31472368639318,stable,stable,1,0.57090536744461,0.166596341843926,0.184174448902669,0.897408961118532,0.341429789597195
2,2.32035213033358,3,-1.40647436369495,-1.80659448441898,2.32035213033358,0.00244853748451192,0.00205096561842041,0.00319402501258249,-0.112145188564788,-0.176272475894673,0.218250534340485,0.0140932793526222,0.226780553629402,0.228480466690522,15.4014163640885,1.94353745135899,2.03276305243703,0.0209625827194065,0.0824090057081317,0.132315948726263,0.421810608657657,0.000237592036329337,0.00580773433543926,NaN,NaN,NaN,NaN,2.42882567996652,-126.095851442396,2.21228503754817,stable,stable,1,0.66445666142706,0.153506341927251,0.0943213050116465,0.958276347539042,0.341192911677216
3,1.75922865158803,2.8219268321991,-1.07755352440227,-1.35400365129192,1.75922865158803,-0.0841689933012177,0.0187914101049179,0.0862411533264233,-0.0687967682330716,-0.103932931929796,0.131706771135561,0.00850214397469231,0.187029485560106,0.189121797450291,15.2669349332655,1.11147667399295,1.35099789202933,0.176374325978866,0.243858811241826,0.227511280211802,0.531958032126757,0.156487340347494,0.0402465212326895,NaN,NaN,NaN,NaN,1.87319628751653,-127.297520073929,1.51060549961596,stable,stable,1,0.506951999913532,0.254917968747335,0.2371358089218,0.892464822563249,0.298883875461421
4,2.36041217032367,3,-0.685091305990779,-2.22540736951388,2.36041217032367,-0.0195112670489771,0.00309734974315315,0.0197555844582718,-0.0337499173743548,-0.269713360174727,0.273574511508539,0.0176638805550644,0.238022020165652,0.239463060495761,15.351049463905,1.6548593721736,1.483827935461,0.063391276026814,0.240423841566201,0.137830173175774,0.414201184233734,0.00194664085999393,0.0100130685353835,NaN,NaN,NaN,NaN,2.46779887999601,-105.553838771394,1.76292687014533,unstable,unstable,0,0.677335857518796,0.147529118827858,0.0930237608433164,0.943643247426607,0.338742145255212
5,1.81238443802481,2.52487063407898,-1.04842503598065,-1.45906054283829,1.81238443802481,-0.0501888903479145,0.00870094240091963,0.0509375216615326,-0.0608232293783079,-0.114031293047742,0.13264412948041,0.00855661868422177,0.135284826595182,0.137382640537133,15.4279162230983,0.919624929732495,1.06988916344948,0.178530845154499,0.240246280412871,0.153793906864955,0.477214339508399,0.159523133961553,0.0362956134645709,NaN,NaN,NaN,NaN,1.88084050141636,-125.058018224367,1.53600405730484,stable,stable,1,0.510779044914042,0.169647939750136,0.185886339395868,0.895102680976321,0.331647152504464
6,1.88770966053009,2.70899653434753,-1.040848019492,-1.55273806163253,1.88770966053009,0.00458256750489388,0.00247373264952855,0.00520761732064222,-0.0599719985502077,-0.127597967067445,0.144702619141965,0.00934063194725529,0.147073859072844,0.148186057893642,15.4211687551872,1.73752653444807,1.71948195711033,0.0213403533143211,0.0537184206962124,0.114323038463762,0.45322712079227,0.000381577590866835,0.0060993018339754,NaN,NaN,NaN,NaN,1.9161886291726,-122.783489357006,2.23007034683089,stable,stable,1,0.533026454386752,0.185744276451043,0.113834083850638,0.962167613766309,0.349189760682773
7,1.90566404660543,2.81670069694519,-1.06603004569443,-1.54897839809625,1.90566404660543,-0.0716947418623054,0.00412450195532284,0.0718132823862136,-0.0660002179349014,-0.132210906606153,0.153343556921315,0.00989408346958805,0.195582907041895,0.197938144264554,15.370520259077,1.1949982767818,1.18027948367438,0.177290607729846,0.240305263647263,0.163421964602207,0.474842147200769,0.159440861347526,0.036474246024795,NaN,NaN,NaN,NaN,1.96867067391655,-123.586570068552,1.57259211721958,stable,stable,1,0.547764707947692,0.218149014763919,0.215015376092531,0.892691799445778,0.327368015732353
8,1.88981259436834,2.85652089118958,-1.09913309463167,-1.50786664449685,1.88981259436834,-0.073112374114641,0.00261786555256307,0.0731592268188404,-0.0697130214563074,-0.12430607070504,0.148203306497997,0.0095602427298788,0.182890557719832,0.18525749753399,15.4237922884032,0.897794732544437,1.16140558365721,0.176580351859009,0.24027714630542,0.177434115031797,0.51632613829156,0.159594383924142,0.0364548769962824,NaN,NaN,NaN,NaN,1.96461919299708,-125.030810267647,1.61945080649309,stable,stable,1,0.54100152467169,0.230921891701564,0.222740291228296,0.895530393014626,0.321140393319201
9,2.63468189358711,3,-0.826853537309161,-2.46662147858977,2.63468189358711,0.00809252466305242,0.00451625880050116,0.0092674456553689,-0.0448813945042037,-0.316441257891905,0.321899533004772,0.0207923475159537,0.195578956230137,0.198138595027373,15.3847198120827,2.16236429495041,2.00740191170362,0.0274116926758826,0.0759031873468562,0.13832974475745,0.516596910014076,0.00122624918259696,0.00695057557362464,NaN,NaN,NaN,NaN,2.98365709536118,-106.900241715489,1.94190537120578,stable,stable,1,0.742209557295371,0.083895605646384,0.0534098450513128,0.953531704895491,0.338520113441133
10,1.87995621217351,2.52336025238037,-1.13540875332362,-1.4830824860163,1.87995621217351,-0.0406905116720968,0.00773152088532059,0.0414185243017806,-0.0695244807393389,-0.116370683335205,0.138531684013138,0.00893612047856429,0.116804927714435,0.119000060091918,15.4284317168067,0.963408773775252,1.0086551930123,0.176730937238958,0.24022942076514,0.158277940251528,0.458240168902532,0.15948455230844,0.037098924372655,NaN,NaN,NaN,NaN,1.92399487038037,-126.353098118705,1.57250371713797,stable,stable,1,0.525121668597987,0.152359305168536,0.17578812430301,0.896139743070048,0.329654248777099
11,1.84567711304645,2.67896127700806,-1.1368617533521,-1.43354389670703,1.84567711304645,-0.0557418310205576,0.0171463089197647,0.058319359007935,-0.0712704077079031,-0.110624605771776,0.135616581370099,0.00874530442115382,0.154444972552005,0.156608199420913,15.4669806964585,0.660052792498853,0.77104172756452,0.176797097424305,0.240264844209666,0.111132097803356,0.445675542562602,0.159474453397864,0.0362722585712475,NaN,NaN,NaN,NaN,1.90759543141243,-127.844704273722,1.67007147442126,stable,stable,1,0.523502203363236,0.198180819376149,0.202975938676911,0.900357137201635,0.350607956531842
12,2.62353625456492,3,-0.78478530322958,-2.46981311959242,2.62353625456492,0.00759826895607003,0.00177746891644786,0.00780340226296939,-0.0410728836611557,-0.317555630641371,0.322125108738621,0.020792379256403,0.198415135175553,0.200969454192479,15.4405849261213,1.76431244713991,1.5445499594052,0.0245430940043827,0.0498138189036891,0.117055288298455,0.463206377436822,0.000431855042013066,0.00552002996193508,NaN,NaN,NaN,NaN,3,-106.299635778902,2.07938415585285,stable,stable,1,0.739803558722475,0.0861349664711038,0.0538801990794121,0.961730248374954,0.347975427422909
13,1.94562937613247,3,-1.02877096695879,-1.62238274190692,1.94562937613247,-0.0739114508628061,-0.002289083486186,0.0739468895346635,-0.0623481559931003,-0.143416345929589,0.161270120410652,0.0104042733412431,0.185001212057264,0.187480236068859,15.3565741054111,1.15838323216815,1.10826901468396,0.176298612317738,0.240277537480797,0.146997171506566,0.463586433427076,0.156653513760491,0.0420497361576052,NaN,NaN,NaN,NaN,2.02726066309477,-121.319262228342,2.05514597204745,stable,stable,1,0.556330547515764,0.250790320118215,0.235388789112701,0.89404128333015,0.33466792377486
14,2.58535170471752,3,-0.692483062799727,-2.45858613598699,2.58535170471752,-0.0138409006483429,0.0140030143937354,0.0196889548444924,-0.0350352969134267,-0.324845444452077,0.328383106809234,0.0212002059036689,0.202142854193132,0.204040497077704,15.3101539935089,1.70678036062118,1.42389481836355,0.0624081029678644,0.240457326864834,0.125322364855915,0.50966272772427,0.00194859971413887,0.00843347486095942,NaN,NaN,NaN,NaN,2.96211416560549,-104.652706865072,2.3259086676269,unstable,unstable,0,0.730235220673545,0.0969055081600492,0.0620760673446825,0.944197786395473,0.344301171175149
15,1.72151952779212,2.41050982475281,-0.924021396198587,-1.44035954324493,1.72151952779212,-0.0419205723612792,-0.0022632882923668,0.0419816252781096,-0.0465917008459427,-0.110083385329375,0.121329897791207,0.00782598793049937,0.122127447180416,0.124011372002747,15.4370841069575,0.978341384046582,0.891455515414134,0.177103007834861,0.240225217589903,0.138602922975756,0.435194654558102,0.159504902642934,0.035222924483715,NaN,NaN,NaN,NaN,1.78867162897179,-121.8764556945,2.09947423349069,stable,stable,1,0.483874148478448,0.162719448117142,0.181331072887485,0.896757234729664,0.338398700899664
16,1.76855579217275,2.47696328163147,-1.00435821479126,-1.44123573295795,1.76855579217275,0.00566666141852997,0.0038329918013957,0.00684126287916367,-0.054925450586077,-0.109445009763094,0.124863524885577,0.00806533020815184,0.12476514330165,0.125775769146705,15.3457215658827,2.09105117028063,2.12600621622848,0.0176915215898041,0.0761081732030977,0.134207064816509,0.496291332854829,0.000159255086585142,0.00588351132262361,NaN,NaN,NaN,NaN,1.79698325918466,-123.928221238646,2.34575921516747,stable,stable,1,0.496770031742074,0.160645916656059,0.0985977886948897,0.958020216882526,0.340352415637107
17,1.84737992854345,2.86653447151184,-1.01456733513823,-1.52403394141266,1.84737992854345,-0.0553296541573203,0.0142587046754633,0.0571373895815231,-0.0575011181407838,-0.124559986738477,0.140568496481246,0.00906656913522707,0.146720837998246,0.14888999426831,15.4428976976849,0.98794826400182,0.865055580596376,0.176443073088612,0.240248795874511,0.123877785353512,0.432933719630663,0.159501708251985,0.0351364349440326,NaN,NaN,NaN,NaN,1.90606506718967,-122.683382350962,2.15937319007048,stable,stable,1,0.52241264646525,0.239784960257833,0.227537509700886,0.897219147533851,0.34494320650955
18,1.84761303703801,2.62804341316223,-1.05879075831133,-1.49867966955878,1.84761303703801,-0.0552110213623319,-0.00947521727297854,0.0560181811757756,-0.061909245860812,-0.119421530036885,0.137257039055668,0.00885630891929533,0.136295113486292,0.138711998382267,15.3554585857799,1.05293438053076,1.19388525606593,0.176477602516029,0.240213057379344,0.158176954131538,0.524204786304747,0.159566527565903,0.0356863979082603,NaN,NaN,NaN,NaN,1.87952489310621,-124.36494621675,1.84518956227067,stable,stable,1,0.520439209553256,0.185866834510175,0.195415429368702,0.894107615883011,0.329699131497094
19,2.62363898237546,3,-0.782137905527616,-2.47185960463792,2.62363898237546,0.0063359494509423,0.00172611003155802,0.00656686464653729,-0.0404588889422055,-0.317952522491963,0.322388217922461,0.0208193180504355,0.194609497867253,0.197138497832389,15.3661766451053,2.05427766985679,2.03202719731759,0.018802683217987,0.0731329318961889,0.13770156959956,0.515511620309735,0.000386116687356562,0.00834434908618642,NaN,NaN,NaN,NaN,3,-106.031594526481,2.31162371673459,stable,stable,1,0.739064761533268,0.0858851541507194,0.0547370086656478,0.958491977291779,0.338799302400196
20,1.893582717902,2.62262606620789,-1.01906759763227,-1.5818143892751,1.893582717902,-0.0449761297833887,-0.00459353012833523,0.0452100958783782,-0.0570207973464476,-0.132029613606695,0.146154130820425,0.00942821921974984,0.129074068590432,0.131490087081316,15.4080078940245,1.08998904043697,0.917202997360003,0.176495388865581,0.240214519787011,0.186181697482505,0.480414255231807,0.159464656193926,0.0347184732191427,NaN,NaN,NaN,NaN,1.95533603544456,-121.682915799118,1.77303905830555,stable,stable,1,0.531253408856795,0.172323270946528,0.186892042450966,0.895981510984519,0.317252578896664
21,1.93618644013697,2.75700569152832,-1.06607083533632,-1.59229658547199,1.93618644013697,-0.054329061541506,0.0221570615042379,0.0586735230106675,-0.0637462448954808,-0.135518110971299,0.153935959486728,0.00992964423108095,0.151913035410442,0.154329066451417,15.4144249975502,1.00246330540094,0.979624262778386,0.177047009709506,0.240324394696758,0.150407791307919,0.446518195730619,0.159577849734307,0.0370015628130006,NaN,NaN,NaN,NaN,2.01006102178809,-122.843348050567,2.43047726599867,stable,stable,1,0.547182197326808,0.19544114411501,0.201643288989991,0.895902949966695,0.333152092752036
22,2.62560437281926,3,-0.741038158462825,-2.48609182202057,2.62560437281926,0.00597944587043773,0.00363012378472768,0.00699511055023009,-0.0374413174202352,-0.321577829141275,0.325540592423248,0.0210198611989733,0.194457811930971,0.196917045003467,15.4046336469036,1.9083404183305,1.97449482608462,0.0260027039296779,0.0575633798210636,0.125717489378868,0.436446955926393,0.000159914902073547,0.00459371016514616,NaN,NaN,NaN,NaN,3,-105.373889448931,2.00537912472391,stable,stable,1,0.739544575085831,0.0855214530498743,0.0530543851797882,0.956490656829042,0.344125560276059
23,1.70617451878632,2.50694584846497,-0.844273522673117,-1.45334380511029,1.70617451878632,-0.065329406543659,0.013116305515437,0.0666330911013511,-0.0429097395367509,-0.115158545221632,0.126730044140991,0.00817415245324237,0.178041326184055,0.179961540215908,15.4598536345365,0.939762397919583,0.888575155205043,0.177177738250558,0.24027996989712,0.162630819789675,0.378758587227834,0.159458121522122,0.0369116972583311,NaN,NaN,NaN,NaN,1.75191981509009,-118.497538474994,1.79451291607883,stable,stable,1,0.490972179719533,0.19238961587961,0.199726481126486,0.897045621528742,0.327719635649033
24,2.61787993349928,3,-0.594115471671561,-2.51776128440103,2.61787993349928,-0.0175461889399526,0.0120939370379121,0.0213103744545584,-0.0281081154416419,-0.338754211718152,0.341051854021558,0.022008526693653,0.196054815057301,0.198118054306961,15.4324853272758,1.47775157011814,1.22298883776778,0.0625483613211936,0.240303948015769,0.111229904812532,0.430155826962145,0.00191943601474795,0.00878848008987996,NaN,NaN,NaN,NaN,3,-102.185830974197,2.17809411621269,unstable,unstable,0,0.737724926461199,0.0898839169459987,0.0579792437825951,0.947505716134585,0.350564486749986
25,1.75468655751676,2.45363712310791,-0.954875595610436,-1.45301693338203,1.75468655751676,-0.0507208538036795,0.00621961403020547,0.0511007691650424,-0.0510264016573505,-0.113057740291106,0.12696667510887,0.00819002079969878,0.136869157385941,0.138865381336689,15.4284015492779,0.973102501675096,0.974687645250367,0.176004931146838,0.24021341634138,0.162083275121108,0.429412580535856,0.159567212214687,0.0342919388985967,NaN,NaN,NaN,NaN,1.79680657025774,-122.144595008979,1.82457835979655,stable,stable,1,0.49568949160514,0.166632351604933,0.183367967910391,0.896693468986452,0.327962988835063
26,1.8464549686199,2.81022143363953,-1.0420944588898,-1.49167951617921,1.8464549686199,0.00202086404966985,-0.000932821029192936,0.00222576876151872,-0.0641568511655009,-0.121272405933516,0.143023476899871,0.00923770676331929,0.19691008726929,0.197993569027042,15.3577744517402,2.03799340630092,2.07684842208449,0.0198826580038246,0.0724262663672251,0.145495898173683,0.511721042312794,0.000355823735133266,0.00580657417029257,NaN,NaN,NaN,NaN,1.89015622586425,-123.159855511628,2.26761676477664,stable,stable,1,0.531986705437383,0.217255512235693,0.132622932740167,0.957727770917917,0.335335156367252
27,1.67355380773544,2.41178774833679,-0.800399502973703,-1.45377678637137,1.67355380773544,-0.0624112773713805,-0.0115428332411664,0.0634697135834152,-0.0373649986907135,-0.11553399045835,0.123167429792423,0.00794281942869595,0.143327558887887,0.145358915476076,15.427141609115,0.667171473407547,0.777954244416177,0.174559813422873,0.240190583350395,0.113355550790887,0.424311868596878,0.157297081699553,0.0387294276474214,NaN,NaN,NaN,NaN,1.77620387229689,-117.832865156267,1.7687750648421,stable,stable,1,0.475352798491333,0.177738750792263,0.190636492799474,0.901365534077091,0.34961975520405
28,1.73259458898687,2.47988295555115,-0.982277375294301,-1.41284283554802,1.73259458898687,-0.0326843001438391,0.0169296038968811,0.0368086262172042,-0.0525900459132269,-0.105744050831259,0.120460897586417,0.00777030174778721,0.124598916220673,0.126645030171917,15.4365223612435,0.830003050670068,0.991699593404915,0.176781349791656,0.240209051697655,0.150876755710576,0.439358914661116,0.159507024759479,0.0377215229975492,NaN,NaN,NaN,NaN,1.77693740749085,-123.63065316624,2.00525390748666,stable,stable,1,0.487354229764215,0.174888130616783,0.189541806827937,0.89729594718644,0.332943664128633
29,2.62674720923106,3,-0.517542058134856,-2.54197905617089,2.62674720923106,0.00442934586301785,0.00529467658708611,0.00690309386696075,-0.023052210727974,-0.335847122328898,0.337449989822264,0.0217978542664504,0.199215121040306,0.201906209016881,15.3256481115436,2.18364677059316,2.1042308884905,0.0195679335820628,0.0670929238563058,0.141670285740953,0.481544167561885,0.000237426365356547,0.00619400137160989,NaN,NaN,NaN,NaN,3,-100.208461528465,2.27262555837548,stable,stable,1,0.740847164264992,0.0852474451319546,0.053506354043351,0.956525565887597,0.337035428559577
30,1.84269109388598,2.90983462333679,-0.931599087084996,-1.56945328594756,1.84269109388598,-0.0603522912614322,0.000771439838750636,0.060357221439771,-0.0491265994797987,-0.131134151641688,0.142852949839844,0.00921279895180491,0.141290039653757,0.143490066868422,15.4686026529825,0.793354601695974,0.797231467152262,0.176380568745033,0.240249788292907,0.129930287812597,0.412084253620776,0.159524752200698,0.0339366810850484,NaN,NaN,NaN,NaN,1.90894849737311,-119.745808657761,1.89510191280559,stable,stable,1,0.520082305076612,0.251172784723724,0.233944172004865,0.899312253657961,0.342253205416624
31,1.8962120725995,2.74614000320435,-0.937687899221507,-1.62543735591866,1.8962120725995,-0.0649968052893902,0.00582267750379953,0.0652570936461328,-0.0502275152630819,-0.14128465223231,0.153205136690781,0.00988240128237154,0.154936929504139,0.157348800127426,15.4325776840991,0.952258375219944,0.977195294511702,0.177237558253599,0.240258973924381,0.161559619084112,0.472445105756033,0.159491291818724,0.0368574785518771,NaN,NaN,NaN,NaN,1.95935225919259,-119.13516242978,2.06123838250521,stable,stable,1,0.537126312718686,0.203197584887881,0.206206288992238,0.89622122775388,0.328195724851506
32,2.61912805875142,3,-0.646599789741873,-2.50250581953023,2.61912805875142,0.00678257540262431,0.00879312771631544,0.0111050629952161,-0.0316434732595614,-0.325895135630413,0.328831002527566,0.021231255502198,0.203367094187713,0.205935443751666,15.3384861478817,1.89114662872036,1.70933699393064,0.0339718566538042,0.0758897135068354,0.116999985807039,0.493909762337386,0.0235891811926529,0.00519421732010665,NaN,NaN,NaN,NaN,3,-103.01941117063,1.58030544902808,stable,stable,1,0.739621237750713,0.0877321149967192,0.0650121558263201,0.954724557495126,0.348000006307983
33,1.89063428372753,2.64997839927673,-0.808076587376467,-1.6953585297808,1.89063428372753,-0.045104186759874,0.00423396771943855,0.0453024739492098,-0.0369573341886611,-0.151571462222307,0.157385013678481,0.0101561085098102,0.132099232054826,0.134654562235682,15.3372319828327,1.23945598666605,1.16796250523603,0.177652677807507,0.240239248349642,0.171379286447795,0.490633839867458,0.159543609561926,0.0365047070921143,NaN,NaN,NaN,NaN,1.93692079365451,-115.089103932968,1.84869830465492,stable,stable,1,0.531100054774477,0.179157879555926,0.191677437592554,0.892258230088445,0.323831428245424
34,2.60462671846425,3,-0.531522722293544,-2.51573280933473,2.60462671846425,-0.00717777783472144,0.013439920129308,0.0152365333237846,-0.0258775821400634,-0.33678337765944,0.338819062001218,0.0218709202963419,0.200337230701036,0.202275014041518,15.3614838932892,1.66124301165709,1.44213974254984,0.0621544504439514,0.240431648274776,0.124728609174823,0.492590713106671,0.00194876257754097,0.00686738891316425,NaN,NaN,NaN,NaN,3,-101.157933097739,2.49707291680206,unstable,unstable,0,0.735022127732103,0.0917523527882381,0.0584147607061319,0.944539053137827,0.344565062588967
35,1.80100216184344,2.52196335792542,-0.803485899119122,-1.59831711402717,1.80100216184344,-0.0437845016283307,-0.0032848373552673,0.0439075476346818,-0.0362055363859731,-0.135254993778158,0.141375100163241,0.00912234224417911,0.122236995276088,0.124493710456504,15.3632928759633,1.17912703114476,1.13951422254754,0.176918571085599,0.240204174752238,0.154202525275973,0.46796243766399,0.156609598782221,0.0411820356403253,NaN,NaN,NaN,NaN,1.86137587595629,-115.841095627455,2.1176385913101,stable,stable,1,0.50516598524955,0.170265986184804,0.186739143523705,0.893322818892476,0.33146554432179
36,1.96199862837791,2.83965063095093,-0.885355109188371,-1.72804267865962,1.96199862837791,0.00213406013730585,-0.00133219142124273,0.00251573978234447,-0.0454248363116243,-0.157950132176821,0.167063350379343,0.0107831405379476,0.164042790718506,0.165341577820501,15.4171014123073,1.75971834847593,1.56883726189074,0.0319348815645709,0.0605268413317921,0.109830386313158,0.478460160872016,0.0127056124108305,0.00474344865009659,NaN,NaN,NaN,NaN,2.00134863438598,-116.022448666907,1.74704459579283,stable,stable,1,0.556267949798211,0.197932919539024,0.12613158099089,0.957879622279119,0.35118649497193
37,1.80957400798798,2.51030778884888,-0.807541981497108,-1.60488501585971,1.80957400798798,-0.048641998396305,-0.00777869881093532,0.0492600463172477,-0.0367316912052519,-0.135664159256671,0.142032174715842,0.0091650138293639,0.122399702880421,0.124695702596402,15.3609085267429,1.16068053960682,1.17711139298466,0.177130969003118,0.240229939035284,0.156159539678476,0.468700805949257,0.159525474823136,0.036102359318953,NaN,NaN,NaN,NaN,1.84847057739295,-116.145839673518,1.8081924987014,stable,stable,1,0.507492209316074,0.166696109185198,0.184046007205061,0.893066150313794,0.3305957601429
38,1.96348638275043,2.6066677570343,-0.778231909488566,-1.78859781563331,1.96348638275043,-0.0474892853106407,-0.0156610213889879,0.0500049978528324,-0.0348309491034421,-0.168306444070151,0.173054479587372,0.0111613647521859,0.130565667437252,0.133416862618819,15.4399809441986,0.815562504797926,0.870825301611054,0.176111188287691,0.240270594472134,0.145117389436774,0.461345629438125,0.159545948056937,0.0376289919311545,NaN,NaN,NaN,NaN,1.9993932608471,-112.620106358339,2.31895844238473,stable,stable,1,0.550279741257211,0.153883392153558,0.176922615332809,0.898694215948655,0.335503382472545
39,2.62000971198082,3,-0.618751203865382,-2.51310332540978,2.62000971198082,0.00670356386525795,0.002384373761692,0.00711498466133535,-0.029060255586946,-0.32901377949522,0.331454633738271,0.0214158578682312,0.197714429360288,0.200353629727637,15.2949965828858,2.27973116649995,2.05563939610199,0.0352736535126842,0.0863837121560562,0.143877124322955,0.49809600304372,0.0264208056587496,0.00702482231453136,NaN,NaN,NaN,NaN,2.9987372183553,-102.731971335258,1.53602665710317,stable,stable,1,0.738739982473746,0.0868022286588937,0.0663783983297616,0.948299547394643,0.33605461141202
40,1.88099829193686,2.712162733078,-0.291705261738336,-1.84045320083423,1.88099829193686,-0.0492516707186977,-0.0140463922428639,0.0512155074525617,-0.00813457358649059,-0.179378122238064,0.179774937087345,0.0115956284875189,0.140931222911013,0.143851718655408,15.4384046443926,0.9991224001805,0.699783103051215,0.176456674391826,0.240264101947501,0.129142111917393,0.389937818991786,0.159556486582352,0.0368857044152328,NaN,NaN,NaN,NaN,1.96262077332345,-97.9255988407311,2.0111526216018,stable,stable,1,0.530369888247578,0.196401508956393,0.202167882834158,0.898423119564409,0.342603505814492
41,1.88100633572559,2.68827223777771,-0.256591798652391,-1.85127404598982,1.88100633572559,-0.0417646829789048,-0.0266296369766241,0.049532073546695,-0.00593705126727063,-0.180457724766602,0.180656511721115,0.0116510278322908,0.121582977016257,0.124591987553457,15.463827385281,0.826613330415475,0.659397724762006,0.176127293845295,0.240229354545489,0.128260221179387,0.420417791371713,0.159412341827779,0.0369207609256114,NaN,NaN,NaN,NaN,1.94919332297993,-97.076725643542,1.86754557093209,stable,stable,1,0.526520087037515,0.190715708111954,0.198705085814085,0.900260551929529,0.342995457253606
42,2.61660129785538,3,-0.632116824940297,-2.50300251494981,2.61660129785538,0.00710167018870912,0.00097500933665401,0.00716828868529737,-0.0307858135552538,-0.326092499030497,0.328914634348795,0.021220460809554,0.205283333668193,0.207898639993883,15.4572044783396,1.3291553285215,1.16501254815046,0.0331905147254613,0.0474454099526315,0.0853454703969473,0.376160435134292,0.0254527744920874,0.00601374639192991,NaN,NaN,NaN,NaN,2.97766096785849,-102.83550377438,1.5,stable,stable,1,0.739340074093544,0.0875788942415114,0.066046497633405,0.963807709320561,0.362068679823579
43,1.8350632969214,2.57108569145203,-0.231750258264144,-1.80838639512149,1.8350632969214,-0.0427686569805393,-0.0250002968529047,0.0495396090280534,-0.00513761003065178,-0.17242256880587,0.172588500817433,0.011131879938684,0.125736250110966,0.128538992928035,15.4276458317922,1.00105915662686,0.720071811363936,0.177006037051506,0.240209299637144,0.153879997167716,0.429861376087449,0.158749240749784,0.0353501766753921,NaN,NaN,NaN,NaN,1.87761184680711,-96.9149867627548,1.65981849893529,stable,stable,1,0.51505801109798,0.174687300424534,0.188222208065878,0.897973809582891,0.331608890147682
44,2.4855489626808,3,-0.583001862856164,-2.38477217651872,2.4855489626808,-0.0102864356141733,0.0108510730784832,0.0149518074024218,-0.0280569779968739,-0.307077726879927,0.309588061381741,0.0199776944282336,0.216562088745228,0.218323500983039,15.4307031466503,1.49097667813657,1.12439025082332,0.0626575299114275,0.24029159849752,0.10323564673594,0.392425736833046,0.00192460536875674,0.00842503993962429,NaN,NaN,NaN,NaN,2.70268226585959,-102.84402520654,2.1926198010619,unstable,unstable,0,0.706477756911487,0.118492648087264,0.0750146199033866,0.948121923459601,0.354117490339582
45,1.66687202534708,2.26523900032043,-0.227367680109465,-1.64038111104677,1.66687202534708,-0.0403217020825768,-0.0147045963362541,0.0429192825225243,-0.00469744476776568,-0.142252086194439,0.142422326155054,0.00918710273156745,0.115367261840515,0.117804092416096,15.4543428620224,1.0025067492658,0.715345664146258,0.176680731291011,0.24022480849278,0.160517484415233,0.404755595316711,0.159117147340138,0.0379464010420768,NaN,NaN,NaN,NaN,1.74484723470437,-96.8322370152764,2.31439903792155,stable,stable,1,0.468060025242441,0.142501104498134,0.170018086138081,0.898162222534828,0.328658895815452
46,1.68908449172974,2.49018883705139,-0.239798464546303,-1.6558430105647,1.68908449172974,0.00620526072715346,0.0044081274474978,0.00761162586346285,-0.005972453062063,-0.144307758225125,0.144588414909092,0.00933840435032746,0.13143833536843,0.132637717536656,15.3960189133763,2.30911990033966,2.0062013773035,0.0197733454417719,0.0694295594930413,0.140794948713635,0.435901954950729,0.000152619758964098,0.00730775930241994,NaN,NaN,NaN,NaN,1.71876069037497,-96.5690723186371,2.28933642748649,stable,stable,1,0.476950074635261,0.181643942439007,0.11171156348645,0.956207231526203,0.337424467238385
47,1.78654562534929,2.51133418083191,-0.142907811859118,-1.76909727923727,1.78654562534929,-0.0378572229404272,-0.0192591694350905,0.0424745210224993,-0.00275357874360609,-0.1645767635928,0.164643009656808,0.0106189056746116,0.119933203744308,0.122724956873981,15.4452815240506,0.994262947934283,0.606790034670863,0.17667459178188,0.240208019796356,0.118490644605766,0.378499729233389,0.15950519022869,0.0376651453578343,NaN,NaN,NaN,NaN,1.8330973949862,-93.5355183886098,1.73031630320279,stable,stable,1,0.500957158134607,0.170864420504381,0.187106264453582,0.899083002102877,0.347337491286326
48,1.68877806509433,2.55197334289551,-0.199281842275529,-1.65470213360516,1.68877806509433,-0.0570512082365278,-0.0200370991445579,0.0604675590988796,-0.00583516569727483,-0.149292588961709,0.149597038811148,0.0096527077523251,0.172575185605963,0.175051353268866,15.3469633474311,1.15014608028196,1.0119367332342,0.177757556760384,0.240216666168455,0.144649000740259,0.46101556922007,0.159392534109841,0.0373182062984295,NaN,NaN,NaN,NaN,1.76093856199151,-95.8152911333806,2.17356980726043,stable,stable,1,0.485351088012262,0.205304656673393,0.207594177110868,0.894133428085038,0.335711555226551
49,2.62607903917631,3,-0.673200430689013,-2.50561496808618,2.62607903917631,0.00601567404433058,0.00311886658042809,0.00677610972122972,-0.032512207323889,-0.326947739715026,0.329916310505039,0.0213026806734072,0.195693878615192,0.198230968485713,15.4314857151617,2.04946889458283,1.91296753289787,0.0160160760363391,0.0517078443365003,0.129059143761913,0.438517492648437,0.000265034704808877,0.00869077088807985,NaN,NaN,NaN,NaN,3,-103.690253195533,2.43444612835704,stable,stable,1,0.739933937477491,0.0853745029675568,0.0545027753056095,0.960858532908768,0.342640380550261
50,1.64825782808317,2.36104464530945,-0.161434115685345,-1.62449780763977,1.64825782808317,-0.0476219293104433,-0.0274854435800278,0.0549845229136322,-0.00365629153262623,-0.141342247107636,0.141475768613895,0.00912497214618324,0.140667029867295,0.143023725239618,15.4514915710113,0.918991533961802,0.706617103458453,0.177356259591811,0.240216295141271,0.151153927525293,0.3948372819059,0.15950073774969,0.0358760746207832,NaN,NaN,NaN,NaN,1.72627812567413,-94.411640590645,1.88579038157445,stable,stable,1,0.468140165870102,0.170457529743412,0.186209579940336,0.898549230910078,0.332820476655425
51,1.5894043510463,2.31060028076172,-0.124108125006277,-1.57472234380965,1.5894043510463,-0.0338681462157089,-0.00747877436232368,0.0346840510040449,-0.00216678551050249,-0.13047356018746,0.130527255342545,0.00842224544580232,0.100072240333724,0.102154684714048,15.3568995778841,1.11475450682095,0.966983190786869,0.177064989635935,0.240144022491217,0.143506118330727,0.439066038419538,0.159710886305889,0.0362405157374972,NaN,NaN,NaN,NaN,1.64198518080473,-93.7945426045898,1.74101798401236,stable,stable,1,0.444272097221822,0.168627826870045,0.185337681617068,0.895110994700828,0.336219502964121
52,2.62674701971354,3,-0.660455012492372,-2.50880925032258,2.62674701971354,0.008681579979517,0.000955074542262282,0.00873395662469353,-0.0319114982735924,-0.327184304953916,0.33011404488956,0.0213219811391995,0.195738292557454,0.198371272670664,15.3351459774682,2.21208083798857,1.81660677324324,0.0201887783324041,0.0768824384142864,0.154139357764903,0.495704695754809,0.0108105209777575,0.00766941973981028,NaN,NaN,NaN,NaN,3,-102.899260755177,2.1208371573838,stable,stable,1,0.740140126457743,0.0855831459456476,0.0589434434628886,0.958251636745548,0.331493618771154
53,1.72200926303864,2.3134171962738,-0.135697052522248,-1.70518323241763,1.72200926303864,-0.0481025508499358,-0.0167958292874732,0.0509505179534478,-0.00275502932249995,-0.152907248105086,0.152980491332945,0.00986598615750974,0.113664877794117,0.116102313510916,15.4481634268126,0.922066052244571,0.568682142743222,0.174269713891261,0.240219575053009,0.136112792357511,0.397083265436383,0.156942174342918,0.040808319296621,NaN,NaN,NaN,NaN,1.76767167051157,-93.7767495596924,1.79427106408782,stable,stable,1,0.482422932845819,0.142407713269378,0.170036094282503,0.901152121522322,0.339505425618884
54,2.67294250266387,3,-0.561694975271918,-2.57912535841374,2.67294250266387,-0.0238366336492868,-0.00922648042098651,0.0255599891371096,-0.0237663698684245,-0.340100324343442,0.341894246940767,0.0220691042628955,0.198248111359775,0.20038351773875,15.3863452543866,1.64795545406958,1.36170886445075,0.0640706419336802,0.240154385198512,0.117968372091026,0.37140643281191,0.00187026152331437,0.0104459401689724,NaN,NaN,NaN,NaN,3,-101.106544404973,1.55967785609769,unstable,unstable,0,0.752861370924781,0.0782739349091,0.0515941119869634,0.9443173165305,0.347569612403988
55,1.64555197670346,2.45643401145935,-0.16624171962191,-1.62639768763265,1.64555197670346,-0.033744859058255,-0.0152687192229867,0.0370384840344728,-0.00313120982971081,-0.139420127139279,0.139510694473895,0.0089973725936485,0.118084116836889,0.120518692237079,15.4610488039249,0.852489872126879,0.532452845456508,0.176240968508523,0.240200007151996,0.123297220094923,0.408754628408577,0.159416496640014,0.0360645146388007,NaN,NaN,NaN,NaN,1.6954412846166,-94.4207914550518,1.79458176868276,stable,stable,1,0.462917598901672,0.189238846559728,0.197509453179851,0.900997822964726,0.345201235513368
56,1.71069498181343,2.54539608955383,-0.0927841082879127,-1.69727120704521,1.71069498181343,0.00187767167113504,0.00472109790910865,0.00508078895172523,-0.00157300169228743,-0.151221618537461,0.151258852175844,0.00976860573838279,0.118770231008985,0.119987641027781,15.3623025413973,1.9677024549572,2.03832486026847,0.0185417669390517,0.0687852184881503,0.122662798126147,0.444888854814419,0.000232029531841995,0.00707036856984209,NaN,NaN,NaN,NaN,1.73280982852964,-92.1431804697514,2.30176621157521,stable,stable,1,0.480182856689138,0.188739227216073,0.115917703682325,0.95925318762513,0.945483200832823
57,1.583894741373,2.56936144828796,-0.195848470739585,-1.54899755638005,1.583894741373,-0.0575819191497315,-0.0308660381428744,0.0653329145500459,-0.00576526803101715,-0.132173782449412,0.132506084009472,0.00854681210055695,0.167823066234679,0.170074271949177,15.4460522906068,0.971665058327039,0.693555358322268,0.176802387090416,0.240204908148186,0.127613992350133,0.380649867551954,0.159585005563148,0.0361441052464392,NaN,NaN,NaN,NaN,1.65239533729994,-95.8334835366937,1.69692397917313,stable,stable,1,0.456386785422635,0.233707710056709,0.224294606171908,0.898514931752547,0.343282670066608
58,1.63166139077167,2.28622841835022,-0.0945309216934735,-1.61345456724955,1.63166139077167,-0.0434000936208067,-0.0103457644479501,0.0446161738420862,-0.00193304196599264,-0.138181508188015,0.138254384871803,0.0089194546569837,0.133210436189851,0.135510652783666,15.3902079411175,1.0967724556782,0.858971142503051,0.176698037258751,0.240198790506568,0.151290957627075,0.465097751703605,0.159413993104842,0.0348716276932423,NaN,NaN,NaN,NaN,1.68060545220575,-92.4282145747537,1.57944663196364,stable,stable,1,0.462211834762512,0.155457213076223,0.176805583336337,0.896284424527772,0.332759574387967
59,2.51698506355286,3,-0.503153718228965,-2.43398096925255,2.51698506355286,0.00618133054817314,0.00283960238137535,0.00680236642868429,-0.0221411327757725,-0.311159353398974,0.312728059027081,0.0201820776748966,0.217030713168245,0.21945517967208,15.4284629532187,1.62835348934279,1.39378096071911,0.029044942209275,0.0465809376827185,0.105857241397355,0.389257779178849,0.00880649873495021,0.00597664292687535,NaN,NaN,NaN,NaN,2.78982386220964,-100.41262924442,1.87927730946968,stable,stable,1,0.715087052881844,0.109925461212533,0.0720426008659573,0.961732186787733,0.352952337156731
60,1.68361664142738,2.415278673172,-0.0764941708555353,-1.67086102210413,1.68361664142738,-0.0344351898727729,-0.0192359331953716,0.0394436741122163,-0.00130761649689873,-0.147147085853182,0.147182629090151,0.00949265760154262,0.10716515214823,0.109608552871817,15.4674195050317,0.889093957639479,0.668917164174905,0.176412960266049,0.240213470774344,0.142361285838104,0.341628057109762,0.159602472613365,0.0343596423529337,NaN,NaN,NaN,NaN,1.72864210057146,-91.9462754292346,2.14759531137201,stable,stable,1,0.470886148288332,0.171855297396444,0.18654202611154,0.899552003909862,0.336728317405287
61,1.60058917074787,2.34972667694092,-0.1923334764088,-1.57932718533757,1.60058917074787,-0.0374598641261434,-0.0312485202345827,0.0487822861005944,-0.0036911296103646,-0.131708379612814,0.131829188418779,0.00850325586686431,0.112584218047224,0.114780442820663,15.4257090571424,0.894226129369537,0.760760699197824,0.176141169655317,0.240170230282976,0.143864077610742,0.423365010142383,0.159544671039715,0.0346960422069654,NaN,NaN,NaN,NaN,1.6541677253945,-95.777639022521,2.23231053017456,stable,stable,1,0.449779867430232,0.177499358011877,0.190025100112159,0.898925947233598,0.336060409950782
62,2.60421812931697,3,-0.528070195127429,-2.51718555975281,2.60421812931697,0.00338469647139001,0.00499326964863756,0.00603232227151742,-0.0235531233033704,-0.329988046638719,0.331696790158953,0.0214112985604885,0.199176756484653,0.2017856192596,15.4232869270575,1.83409027829272,1.50491379242372,0.0308456943148483,0.0500564088466166,0.111445866032579,0.377278152247972,0.0106447267098983,0.00412512987783969,NaN,NaN,NaN,NaN,2.96888331606625,-100.576107342626,1.81584022983033,stable,stable,1,0.734815291669778,0.0901568466534609,0.0603251448692255,0.958342120858375,0.35046850398552
63,1.54087744805278,2.18287992477417,-0.0812150342328779,-1.52904401009342,1.54087744805278,-0.0352987216694731,-0.0154896644458254,0.0385477555266607,-0.0013339616317724,-0.123348162818921,0.123379656114522,0.00795753169784347,0.111924868429227,0.114088666305013,15.4566652088855,0.87871528692275,0.615549761632372,0.177254204276549,0.240163475095059,0.136629743554002,0.371939769696934,0.15951245945647,0.0364122440475511,NaN,NaN,NaN,NaN,1.60300708299886,-92.1234906695166,1.91900186519066,stable,stable,1,0.433718386075076,0.151517645775535,0.17504582990771,0.899632243908792,0.339275669531555
64,2.62686556138788,3,-0.615317246698203,-2.52025731589975,2.62686556138788,-0.021077979480174,0.0057932415988104,0.0218596172699529,-0.0289160056203758,-0.337132567440297,0.339604242940921,0.0219184071630576,0.200248202089957,0.20220746447278,15.4328866836702,1.62216509103879,1.3420688877972,0.0626302573648305,0.240336970860934,0.118273884142336,0.372154691268906,0.00190469140207165,0.00835372720422592,NaN,NaN,NaN,NaN,3,-102.201792877698,2.12882984545736,unstable,unstable,0,0.740938975931325,0.0879628451872174,0.0566619556077172,0.945394461483873,0.347433829270073
65,1.48718441870748,2.38436198234558,-0.127419799846863,-1.4714941435914,1.48718441870748,-0.0342541297689187,-0.0137729916227227,0.0369193811495468,-0.0022336744214895,-0.114838954054987,0.114902666116345,0.00741178439971129,0.104035908264278,0.105960375067304,15.4011650461912,1.01710601121618,0.649435400054901,0.17746236254094,0.240151065689956,0.148649484450919,0.46035234897058,0.159432059742139,0.0352102748183347,NaN,NaN,NaN,NaN,1.55228808798252,-94.2268777224065,1.58837286751466,stable,stable,1,0.417774586668788,0.208633505029323,0.208842532533899,0.898174564783829,0.333933562466258
66,1.58082261939843,2.25874161720276,-0.123713224953263,-1.56598672581405,1.58082261939843,0.0023806502451322,0.00272799660387638,0.00362069897401166,-0.00212390366072655,-0.128421893210148,0.128472903188461,0.00829005809589064,0.11159316585001,0.112680138244889,15.4555460869739,1.54074411316019,1.46497514700896,0.0298186000432286,0.0506735430385191,0.10047770773892,0.380801026340241,0.0107520611025047,0.00656153749602889,NaN,NaN,NaN,NaN,1.60696450398557,-93.5145725727472,1.81710651348972,stable,stable,1,0.444088726155227,0.153195569317875,0.09908204904898,0.961474334362771,0.355343241004924
67,1.67114396727815,2.3389265537262,-0.105407299680163,-1.65718716626119,1.67114396727815,-0.0370125042099988,-0.00954227228523108,0.0382227736861242,-0.00190495528433175,-0.144286379614884,0.144337680833011,0.00930885806976662,0.120601267244455,0.123141673649362,15.4689417187152,0.878321341410331,0.535928818680553,0.176499735563436,0.240180026299996,0.103216117917417,0.376364114325385,0.159588190979898,0.0356175027687947,NaN,NaN,NaN,NaN,1.70472744872138,-93.0615211949791,1.98905350352762,stable,stable,1,0.470266726004046,0.157258590459933,0.178235058344567,0.900638166674711,0.354126169814481
68,1.56461924598331,2.50582361221313,-0.128241101315251,-1.53803821147037,1.56461924598331,-0.0531810895976883,-0.0293102628659909,0.0607233052465923,-0.0031961346327791,-0.128757132893277,0.128911204513659,0.00831596416482797,0.159919444184939,0.162078466207983,15.4088667584192,1.05725977429974,0.813983652690629,0.177352790517789,0.240184966556532,0.142079166877201,0.396957435473055,0.1594315720425,0.0360989606540178,NaN,NaN,NaN,NaN,1.6346567991892,-94.1375227104005,1.75298502606755,stable,stable,1,0.449647492170478,0.222903588363587,0.217727524264765,0.896620977814752,0.336853703610133
69,2.61884655594826,3,-0.384819041984781,-2.5557196157915,2.61884655594826,0.0046036380999283,0.00426097901151176,0.00627291207428059,-0.0164141561068251,-0.339803650466476,0.340743887976144,0.0219979511173458,0.201665405370496,0.204375099092771,15.3784890154995,1.89646251299544,1.54079633363627,0.0324915919349133,0.0749492520301968,0.112760261117952,0.460152286672396,0.0144522003010154,0.00523664643554731,NaN,NaN,NaN,NaN,2.97762147861884,-97.4745863886534,1.73899797010166,stable,stable,1,0.739234101404756,0.0869095587919268,0.0604731704764125,0.95674717023758,0.949884328392022
70,1.69674869418955,2.26528835296631,-0.0750464944920938,-1.68599117271284,1.69674869418955,-0.0339133904470622,-0.0220047523625844,0.0404268126143226,-0.00126978125227357,-0.150474430438546,0.150500392473688,0.00970688791889997,0.124790146678711,0.127402090303093,15.4653825313163,1.02758827412081,0.519088238575008,0.176741411758231,0.240176972584925,0.154090048182267,0.352199253339677,0.159437418529834,0.0379873562228621,NaN,NaN,NaN,NaN,1.74106956136438,-91.9626622500687,2.38054560914302,stable,stable,1,0.477946736511166,0.135333005537396,0.165874462305627,0.899476835806846,0.331515534141215
71,1.61526909490832,2.4423360824585,-0.192275793432459,-1.58666726237771,1.61526909490832,-0.0522907948058922,-0.0104693237927665,0.0533285473467045,-0.00453790997079902,-0.133456747084729,0.133652514109209,0.00862074958514007,0.125703551574313,0.127867175890213,15.4298769216237,0.961718913655269,0.671397699517844,0.177217482910192,0.24020089911035,0.135704599290858,0.437674872655531,0.159482404401884,0.034135399969572,NaN,NaN,NaN,NaN,1.67774962146967,-95.9395937551425,1.98304788063233,stable,stable,1,0.456311860486928,0.195866972545686,0.200814124866679,0.89855962801283,0.339686844759619
72,2.63141566475232,3,-0.616866710484281,-2.5237925083302,2.63141566475232,0.00756818170104795,0.00365128589018391,0.00840293180455091,-0.0292864323491074,-0.331126234514552,0.33360691285266,0.0215272428076245,0.201282917949568,0.203914371318355,15.4465448367824,1.52909040755433,1.33487957873963,0.029351729300434,0.0475646105885856,0.101880260138076,0.395581704160556,0.00961888330378212,0.00521081797227455,NaN,NaN,NaN,NaN,3,-102.28205700878,1.84834003160558,stable,stable,1,0.742493718197624,0.084472012928228,0.0568531099020711,0.962821514028902,0.354719884383077
73,1.69030067304365,2.3929877281189,-0.160001672163455,-1.66716362586312,1.69030067304365,-0.0463150814853829,-0.0204594981258563,0.0506327743320428,-0.00362306284592645,-0.147837732285227,0.147967992216551,0.00954172563487518,0.132098869192207,0.134537760909246,15.4735551537718,0.815843104761666,0.429643954117486,0.175867517218436,0.240188370746796,0.108186231831444,0.371786086923898,0.159460590827378,0.0358418622042041,NaN,NaN,NaN,NaN,1.730743683828,-94.7490683234343,2.49866962642172,stable,stable,1,0.477654398326822,0.167387262686139,0.184337135750633,0.902280271642446,0.351917230297136
74,2.58210008345387,3,-0.558936652897133,-2.48911397982756,2.58210008345387,-0.0144601713397652,0.0183442738451982,0.0233582734396828,-0.0261271945315219,-0.335857210914784,0.337871363023552,0.0218152621895214,0.200355916696192,0.202369638582857,15.351535576331,1.8134785254192,1.5856398363948,0.0633579609054241,0.240447406825163,0.127597875937098,0.480729771750129,0.00195840007410886,0.00806754311664461,NaN,NaN,NaN,NaN,3,-101.440236798872,2.27456152595199,unstable,unstable,0,0.729033949970938,0.098309831353487,0.0627899508874457,0.941613660990178,0.343289832916845
75,1.6798292487657,2.30956816673279,-0.168197967341372,-1.66067042916651,1.6798292487657,-0.0260141288153724,-0.00814064296438197,0.0272581174312594,-0.00334988717330044,-0.145718263531425,0.145818473037776,0.00940438687693406,0.123765722666537,0.12605900490847,15.4536789886171,0.788688950725642,0.674527310163881,0.176782653582082,0.24021554624824,0.110728161181323,0.389183324843585,0.159451619436423,0.035493848901894,NaN,NaN,NaN,NaN,1.72844746755899,-95.0560971705178,1.82109464005125,stable,stable,1,0.473166267319214,0.146688578071659,0.171787387405327,0.900111974016256,0.350787483919412
76,1.7420629688104,2.68989610671997,-0.230796403017054,-1.70191413332185,1.7420629688104,0.00549963152497509,0.0081560305511395,0.00983701078893486,-0.00726892845348036,-0.157368825620186,0.157784987756884,0.010188958510502,0.193672379399809,0.194908875062327,15.362751196584,1.89308664292517,1.88556841678201,0.0321305608831647,0.0759046491916569,0.116726875018517,0.451443212972197,0.0125757621858972,0.00517236099800775,NaN,NaN,NaN,NaN,1.80133462105751,-96.2777836497926,1.76569339613606,stable,stable,1,0.503531900028572,0.215065908007625,0.136509630987482,0.954245286946433,0.348121388880659
77,1.69553432608611,2.56089854240417,-0.153182292207319,-1.66668502204728,1.69553432608611,-0.0672567001954766,-0.0239495981292353,0.0713936059583496,-0.00434872801473322,-0.151625731561978,0.151827930714708,0.00979243562740417,0.175752074529183,0.178185997550998,15.4369477538527,1.00019434717097,0.617883607965748,0.176075104458893,0.240258920943786,0.118573615573843,0.350252516852593,0.160287883187053,0.0338105390855149,NaN,NaN,NaN,NaN,1.75923009576763,-93.8331549635916,1.79308990202512,stable,stable,1,0.487779686466495,0.207795776430596,0.208211266538245,0.899248978123051,0.347300615300514
78,1.75867087729025,2.45672631263733,-0.202643388906406,-1.73059419964664,1.75867087729025,-0.0510483820623982,-0.023406391888193,0.0561586724594897,-0.00494461748911047,-0.160654785904448,0.160852342853399,0.0103776890509191,0.147091942871145,0.149734576120569,15.3909464159403,1.20415660849815,0.788780481774798,0.175112239329246,0.240230621851339,0.163341540219878,0.420456436612401,0.157369682903557,0.0403530097266156,NaN,NaN,NaN,NaN,1.84421771642335,-95.6415120879709,1.64802023773507,stable,stable,1,0.498925815834848,0.167358229570665,0.185030840751638,0.896785088911804,0.327403759902277
79,2.61514234542847,3,-0.40175572996712,-2.55149732958437,2.61514234542847,0.00664894023595342,0.00319940904232561,0.00737866007357672,-0.0170342428557692,-0.339799620235767,0.340767637429851,0.0219937235985479,0.20322371497915,0.205845393677888,15.4313862997058,1.60975520848376,1.48300686621778,0.0338510792702704,0.051421807670076,0.11432996692929,0.454392888977331,0.0267667899886917,0.00462114170660814,NaN,NaN,NaN,NaN,3,-97.5958361626102,1.5,stable,stable,1,0.738540370849835,0.0879457266254174,0.0663442022473749,0.958774186920781,0.34918668136476
80,1.78355983244319,2.55102300643921,-0.231509658318541,-1.75844091632178,1.78355983244319,-0.0329295260902109,-0.0134664700143442,0.0355766707713512,-0.00472092537940946,-0.163293183491889,0.163428120388659,0.0105458679593668,0.120484399926319,0.123281675843203,15.3451587422677,1.21791346750612,0.979799636070497,0.177532862809864,0.240201246168356,0.14860012799468,0.442326607704477,0.159594892668481,0.0360936026141983,NaN,NaN,NaN,NaN,1.84269174465958,-96.4089816842801,1.82692208773709,stable,stable,1,0.500272290486823,0.17920160379052,0.191576972087688,0.893965822781252,0.333955498669031
81,1.84171042069286,2.57525539398193,-0.213147238529964,-1.81654814641615,1.84171042069286,-0.0565894920527273,-0.0231187473618871,0.0611297561778914,-0.00482025628533814,-0.172966880143368,0.173127017426031,0.0111685040035885,0.122022504900075,0.124889583126252,15.4337288484408,1.13047265213053,0.80337220757972,0.177567466558531,0.24023393551118,0.167271792597723,0.399195038033016,0.159478620675495,0.0371610404932488,NaN,NaN,NaN,NaN,1.90149022471625,-95.3637271300002,1.81723791766504,stable,stable,1,0.516100695476679,0.176254740955989,0.190145337174389,0.89602177139444,0.325656981067679
82,2.59166134794553,3,-0.40408130209194,-2.52808778018558,2.59166134794553,0.00571392040957447,0.00628962737612676,0.00849754664461896,-0.0168872770751747,-0.333154591567949,0.334129543947802,0.0215731367812576,0.199835006281278,0.202517163242588,15.3651607917126,1.88575221452761,1.79176861956263,0.0334396144125278,0.0740568388332184,0.12521060667999,0.486078214338759,0.0188078576641768,0.00588281541758441,NaN,NaN,NaN,NaN,2.91783086718893,-97.7855854258006,1.66036690307555,stable,stable,1,0.731613125433992,0.0934340802637689,0.066558701615401,0.95438538624017,0.34435084147556
83,1.70551906069931,2.50093030929565,-0.294723364774861,-1.66956995135164,1.70551906069931,-0.0284108532895015,-0.0212754754272949,0.0354939775073886,-0.00650989366127295,-0.147008158550303,0.147277680694051,0.00950216390529222,0.11851918514574,0.120867857942236,15.3574877456903,1.16913896002575,0.914528119541715,0.177553068115245,0.240197171482551,0.148846143471841,0.44811608526972,0.159503483366596,0.035938811794515,NaN,NaN,NaN,NaN,1.75027764965131,-99.5200046041142,1.5736506299381,stable,stable,1,0.478978654441596,0.185474760143866,0.195243951972509,0.89485179603149,0.333846158456959
84,2.66077202897013,3,-0.457778018641276,-2.58228567365079,2.66077202897013,-0.0279073086341152,-0.00951019552639089,0.0294832442948524,-0.0183681799821148,-0.342106950224536,0.34329386114972,0.0221517695258775,0.208400275024405,0.210554959448347,15.4532406778865,1.45089487692541,1.2193780511059,0.0637278908904819,0.240233350719467,0.108667637430904,0.410514265831225,0.00189236108012643,0.0105543196346045,NaN,NaN,NaN,NaN,2.95681470906161,-98.270421652992,1.5,unstable,unstable,0,0.751650199615037,0.0817315549357771,0.0537179167429948,0.947155338691656,0.351703272252932
85,2.00793475439759,3,-0.443780719651717,-1.93146384017807,2.00793475439759,-0.0691261126415219,-0.0255991120291474,0.0737138656265509,-0.0170873699974657,-0.205277494598551,0.206685738143373,0.0133327478979068,0.201422581812289,0.204626406584949,15.4519631850519,1.0990862132424,0.773443997864111,0.176080051352283,0.240334737487288,0.191023507147975,0.420994917026798,0.159454313570889,0.035716070504006,NaN,NaN,NaN,NaN,2.10680641889481,-101.731697741666,1.63608936826877,stable,stable,1,0.576374549156348,0.236728888958743,0.225893579185986,0.897247236950879,0.315100663489789
86,1.9733106648922,2.82464838027954,-0.54454360156596,-1.88200202872039,1.9733106648922,0.00332558545509719,0.00467079190403201,0.00573374359645815,-0.0185878851476726,-0.185248195882854,0.186745111450851,0.0120501858999015,0.136782317729319,0.138228992498365,15.4559981170698,1.47152508109183,1.33805874059339,0.0262410686491616,0.0477125162718824,0.100410904952828,0.415840505112303,0.0016683282999368,0.00795137786157012,NaN,NaN,NaN,NaN,2.01104491577433,-105.279667622794,2.0100315636004,stable,stable,1,0.553861975804259,0.19260217228817,0.119194192748798,0.964804164219321,0.355372931132076
87,1.95994407546764,2.70912861824036,-1.10746125158789,-1.59269645170159,1.95994407546764,-0.0570285260407925,0.0142006155999286,0.058769977588921,-0.0680060442198031,-0.136151440791734,0.156608005394351,0.0100991093725618,0.165839304173837,0.168345012360674,15.4551021210315,0.736593673803678,0.710520971755659,0.176352479624133,0.240267143733097,0.0731559960824479,0.404557146320969,0.159609533344801,0.0344599825669732,NaN,NaN,NaN,NaN,2.06469467336038,-124.238920485483,1.53752982013202,stable,stable,1,0.556320755930171,0.179341018015164,0.191073083936193,0.90045357368711,0.367486223963357
88,1.93931216853006,2.64841628074646,-1.08548378814771,-1.58408216196174,1.93931216853006,-0.0543065366995552,0.0190522846198133,0.0575516244560874,-0.0655907091665237,-0.133663724224159,0.153026706265531,0.00987088434977497,0.151146211875278,0.153655884474979,15.4375088541028,0.93454971171982,0.995526651036261,0.177357455405792,0.240256804066885,0.156841716789892,0.465378787604227,0.159618507711477,0.0349060450299782,NaN,NaN,NaN,NaN,2.00959748573364,-123.70580417537,2.40667766646092,stable,stable,1,0.547881088503011,0.170099556398974,0.185694400105891,0.896156386589735,0.330292570315603
89,2.63282744089762,3,-0.249979625946024,-2.58613883967484,2.63282744089762,0.00365014177435761,0.00296724803214663,0.00470405100495186,-0.00998260546510788,-0.34755454378559,0.348039356421778,0.0224580434234633,0.196849648664169,0.199631084902112,15.4497935243,1.61847902475783,1.20994062082302,0.0249832820609081,0.0471391941993744,0.0967414382700455,0.434546497012359,0.000216426422701045,0.00735540542879776,NaN,NaN,NaN,NaN,3,-94.0907171926139,2.05931440428807,stable,stable,1,0.742013534553122,0.0834762351489425,0.0528566234937652,0.965285061754268,0.357003805213313
90,1.95988394370695,2.74011826515198,-1.07718523030695,-1.62197625236477,1.95988394370695,-0.0529964378132706,0.000423989900103815,0.0529981338193265,-0.063530493335646,-0.138732298026773,0.155170328975506,0.01001145935544,0.129843827377641,0.132454310121244,15.3859748465405,1.07080155373128,1.137572495812,0.177600387143666,0.240275158304253,0.144915254250769,0.449105133063716,0.159592602327,0.0349929956459926,NaN,NaN,NaN,NaN,1.99637079272466,-122.311062912018,2.38941886209116,stable,stable,1,0.549126580346103,0.185269046858674,0.194816199283323,0.893848296038898,0.335593220332991
91,1.84558034632482,2.84755444526672,-1.10849874492352,-1.44752247811257,1.84558034632482,-0.0617605435923324,0.00984971261666994,0.0625410391938875,-0.0706014379982856,-0.116316684652427,0.141648055101899,0.00913580496427119,0.183531171667845,0.185710999731441,15.4612714811256,0.840120027047775,0.929704696506374,0.177099331240186,0.240256273008994,0.152095218917151,0.436711561721926,0.15932987213306,0.0382831546698543,NaN,NaN,NaN,NaN,1.94546366280019,-126.251978914843,1.65170660198071,stable,stable,1,0.529296958966239,0.236910029447475,0.226880441324742,0.897544568694838,0.332402124925711
92,2.62745105822881,3,-0.47946396372233,-2.55159976727441,2.62745105822881,0.00546572454179927,0.00490448891285274,0.00734357925422763,-0.02036819397716,-0.338513165264555,0.339779009880945,0.0219313897664009,0.192393542641264,0.194993978989445,15.4085267049131,1.76337520914179,1.53033142437912,0.023268792107275,0.0540280263445835,0.112848283132436,0.450007335178296,0.000121491912936779,0.0046563877530303,NaN,NaN,NaN,NaN,3,-99.2513675644137,2.10087496519491,stable,stable,1,0.739652411325572,0.0851698347617927,0.0528491291730181,0.96248648039727,0.349845207496695
93,1.71308297202701,2.4544529914856,-1.03895730781189,-1.34807588169718,1.71308297202701,-0.0411766306450849,0.00518124531814713,0.0415013278622331,-0.0583252643329718,-0.0962783428110019,0.115013357041984,0.00741857262807683,0.112587139047012,0.114459780765349,15.4531820749582,0.834039182877244,0.9693711845975,0.177190805837726,0.240208353891463,0.152739737779937,0.404974628210836,0.159565482149828,0.0386340582756474,NaN,NaN,NaN,NaN,1.74681180591764,-126.657123786368,1.51604800195991,stable,stable,1,0.479714082026938,0.174416831152925,0.189616839222217,0.897234944193835,0.332115672097806
94,2.67842158108223,3,-0.28120385142916,-2.62466539181747,2.67842158108223,-0.0290735246917396,-0.0107180695074711,0.0309862364924844,-0.010197070541082,-0.351748382023539,0.35227288522682,0.0227296250376822,0.207911486573207,0.210142852028592,15.432765818104,1.4816564749219,1.13429291608813,0.0628082632733303,0.240240883255312,0.101364368735109,0.443708469975477,0.00199388683811837,0.0061398280145922,NaN,NaN,NaN,NaN,3,-94.2734617915732,1.85984716277453,unstable,unstable,0,0.756274325360979,0.0780359542801209,0.0499404092287041,0.948041980291113,0.354949169451063
95,1.80050262788526,2.65721035003662,-1.13153897047557,-1.3779210991261,1.80050262788526,-0.051651468571463,0.0105570263902334,0.0527193039767495,-0.0702085494100327,-0.102325982158441,0.128429932342285,0.00828442462245403,0.133410347907049,0.13551166796729,15.4037185587804,0.85018035857102,1.09879515794766,0.176482434717514,0.240257285576817,0.165377715259751,0.482078242536968,0.159840614267698,0.0380132681050592,NaN,NaN,NaN,NaN,1.86493072097439,-128.583435678336,1.71972202422604,stable,stable,1,0.507236367696194,0.202424443213127,0.2063179455194,0.896445403582882,0.326498793217888
96,1.71322067975998,2.72769212722778,-1.05833563058927,-1.3190758017931,1.71322067975998,0.00557944434407064,0.000675593617370023,0.00562019803249076,-0.0641298800115852,-0.0951123112228119,0.120010186455125,0.00774903430853952,0.176724519147731,0.17761973119054,15.4140916565662,1.92374543005604,1.83288660540452,0.0177093562105715,0.0514466676611218,0.128540349428593,0.442645263917397,1.63641879023203e-06,0.00930875628957987,NaN,NaN,NaN,NaN,1.76269102467469,-127.19753908103,2.39797141954053,stable,stable,1,0.492382794174102,0.229286445319546,0.140957596776088,0.961628927330381,0.342870955809514
97,1.76628290228292,2.41168928146362,-1.09296827125635,-1.37301479286558,1.76628290228292,-0.0354419026826022,0.017020559390921,0.0393170180423555,-0.0647516925442945,-0.0998592682737473,0.121704841689139,0.00784935896228575,0.118730499843694,0.120731718540062,15.4593235068115,0.788853830595131,0.860308788050407,0.175847595401127,0.240209878487362,0.141445968029512,0.409029517626319,0.159613075936316,0.0370918348845322,NaN,NaN,NaN,NaN,1.81622668042125,-127.513201967813,1.83408949911149,stable,stable,1,0.495155117650125,0.152424555290089,0.17588181799265,0.899118496010079,0.337135125320217
98,1.87355168741577,2.61899518966675,-1.19391150557205,-1.42954907450147,1.87355168741577,-0.0428794287589043,0.00571304175706982,0.0432583432046117,-0.0770703191066077,-0.108591299134565,0.136138818021083,0.00878533827497428,0.131842644438396,0.134175559560867,15.3433027177546,1.13631543204952,1.32340397266154,0.178074622611577,0.240245348723251,0.167475465091983,0.516893728895974,0.159668021080769,0.0368739033005533,NaN,NaN,NaN,NaN,1.91962505408224,-128.853168090004,2.45427616081013,stable,stable,1,0.526448895223044,0.17565548426065,0.189765547590468,0.89163632194291,0.325566459959119
99,2.63362796425819,3,-0.157280375840686,-2.59661397385101,2.63362796425819,0.00618744625296978,0.00616472287130461,0.00873431732955564,-0.00568092563749477,-0.350277558190438,0.350562257315003,0.0226327560458055,0.192493109505282,0.195350577190135,15.4373262478206,1.88289551185164,1.78826423971025,0.0210563451664517,0.0520851788800737,0.1269313727962,0.423769876396373,0.000145670693637523,0.00485898517367759,NaN,NaN,NaN,NaN,3,-92.2002194325483,2.19687837326554,stable,stable,1,0.741370905906879,0.0840349995523249,0.0522526459614196,0.960627000797359,0.343586056535022
100,1.63259880558974,2.22269320487976,-1.02487325398821,-1.25849426412951,1.63259880558974,-0.0349803483075609,0.0186255968912368,0.0396300091757891,-0.0564938121130435,-0.0841328774533063,0.103484950773965,0.00667449279832967,0.104004212376578,0.105641288983354,15.4635019173164,0.817345491029658,0.910534108594336,0.177074249843652,0.240199481340916,0.136872440288452,0.375023069755099,0.159498188055127,0.0354485445317507,NaN,NaN,NaN,NaN,1.68546986904653,-128.540481584722,1.56116426008283,stable,stable,1,0.456487939287268,0.140036741522483,0.167800508323273,0.897886678223985,0.339167804316243
