scenario_id,mean_wind_speed,max_wind_speed,wind_velocity_x,wind_velocity_y,wind_velocity,wind_acceleration_x,wind_acceleration_y,wind_acceleration,wind_body_force_x,wind_body_force_y,wind_body_force,mean_wind_body_risk,mean_wind_gust_risk,mean_wind_risk_raw,min_thrust_margin_n,mean_abs_roll_deg,mean_abs_pitch_deg,mean_abs_vz,max_abs_vz,mean_tag_error,max_tag_error,stability_std_z,stability_std_vz,mean_imu_ang_vel,max_imu_ang_vel,mean_imu_lin_acc,max_imu_lin_acc,wind_speed_cmd,wind_dir_cmd,hover_height_cmd,gt_safe_to_land,label,success,onto_wind_condition,onto_gust,onto_temporal_pattern,onto_drone_state,onto_tag_observation
1,2.02086319647679,2.69005465507507,-1.24122853444168,-1.57634251782494,2.02086319647679,-0.050913250870137,0.0161507699553957,0.0534135421435203,-0.0834143139440213,-0.130795129355348,0.159028521893777,0.0102568767379429,0.129241243147878,0.131892572756617,15.4631524648654,0.816617562153294,0.927009268577652,0.17608172473717,0.240259505978326,0.121708721636191,0.403374237583721,0.156743219385126,0.0414584810698154,NaN,NaN,NaN,NaN,2.0716688985117,-127.374480982322,2.31472368639318,stable,stable,1,0.565275366945133,0.160360560910926,0.180955800904727,0.898259212532815,0.345907234828359
2,2.30818300922712,3,-1.39301060110499,-1.80149129181114,2.30818300922712,0.0104753873285703,0.00421761797101144,0.0112925657418042,-0.110443827850159,-0.176006795937728,0.21723252270434,0.0140232218774914,0.232573943108659,0.23430685558335,15.4211586277277,1.78065733816778,1.73855293799619,0.0203304994242596,0.0803830661499105,0.120785158676909,0.487828482743863,0.000270266030085622,0.00809823217938049,NaN,NaN,NaN,NaN,2.42882567996652,-126.095851442396,2.25979397863806,stable,stable,1,0.662376840243901,0.157729126643229,0.0977024059231242,0.962183812403725,0.346317707254707
3,1.77973751956914,2.77345299720764,-1.09171268961753,-1.37208552966072,1.77973751956914,-0.0687970098381152,0.0179943158099864,0.0711113490529834,-0.0692126302336666,-0.105089844540693,0.132294189058765,0.00853345799538426,0.193342397119539,0.195503644090799,15.4357239506491,0.954660800766644,0.89745492357339,0.176962921941952,0.240304469123434,0.14769577122262,0.434853221567698,0.15950787899687,0.0348360128717409,NaN,NaN,NaN,NaN,1.87319628751653,-127.297520073929,1.51060549961596,stable,stable,1,0.513697400703263,0.236623063128377,0.225533869586571,0.896966201194924,0.334357435012169
4,2.42919190323412,3,-0.723018688436515,-2.27740068010039,2.42919190323412,-0.0365580909936396,-0.0114228116181401,0.0383011049757413,-0.0318371718664193,-0.271470394054611,0.275140154429269,0.0177534914648551,0.235984237507478,0.237563902248466,15.4402341610509,1.42781276036078,1.2586051344871,0.0638494094432561,0.240129426855805,0.108119661688972,0.452119677378976,0.00189229357909434,0.0115977390552779,NaN,NaN,NaN,NaN,2.46779887999601,-105.553838771394,1.71290074504279,unstable,unstable,0,0.695297287978791,0.135453691017877,0.086330593635677,0.946967726104567,0.351946817027124
5,1.8238158960865,2.74450397491455,-1.06573053509129,-1.44708705924916,1.8238158960865,-0.0643287042039888,0.00985349335818116,0.0650789790633197,-0.0656559236069922,-0.115675781327655,0.13912921013994,0.00897487503198704,0.178622891218433,0.180823975667572,15.4437635610448,0.907717178241376,1.07359955665946,0.178556442834688,0.24031009851876,0.18274214400237,0.47118080933312,0.159610875434623,0.0374414460937756,NaN,NaN,NaN,NaN,1.88084050141636,-125.058018224367,1.57189361882264,stable,stable,1,0.52251570075658,0.219085963897921,0.216004816505412,0.895154289951292,0.31878126933228
6,1.89201696356138,2.56060481071472,-1.04484426004186,-1.56295844541681,1.89201696356138,0.0061894169785403,0.0036848585533562,0.00720326766769675,-0.0592824915870229,-0.127686985848848,0.143217706022957,0.00924814900779047,0.12740530461781,0.128564945320355,15.340879750171,1.90773490712309,1.82160336565344,0.0338626193471497,0.075707787561201,0.124064710110751,0.505771275366752,0.0175456319906288,0.00569367782518722,NaN,NaN,NaN,NaN,1.9161886291726,-122.783489357006,1.66577523658694,stable,stable,1,0.530250846013771,0.151752864681914,0.100920205771718,0.95376674675461,0.344860128839666
7,1.90971210375935,2.68776917457581,-1.07165924575647,-1.55767973090805,1.90971210375935,-0.0479187544865172,0.0189719878222418,0.0515377856864884,-0.0638999557713116,-0.129730951289994,0.148677692917007,0.00959218249182928,0.149185040843672,0.151596490284039,15.3866596684847,0.919204262763941,1.21966422904454,0.176736145418998,0.2402628716645,0.148911902763025,0.457626498826355,0.159547591748431,0.0362771173830432,NaN,NaN,NaN,NaN,1.96867067391655,-123.586570068552,1.70828832449057,stable,stable,1,0.539575859059301,0.184511434976225,0.194808580811195,0.89482653199772,0.333816932105322
8,1.91402179692067,2.78768825531006,-1.10455481057856,-1.53921164866453,1.91402179692067,-0.0532490116827231,0.00942597776288853,0.054076855511145,-0.0674722853830272,-0.12716008437219,0.148415196856011,0.00957701868255279,0.147638376202012,0.14993708249181,15.3564377540687,1.16518381797924,1.28346093917402,0.177320484282985,0.24027593090056,0.177244108941878,0.503178097409301,0.15956023414878,0.0386680961294207,NaN,NaN,NaN,NaN,1.96461919299708,-125.030810267647,1.96217659603842,stable,stable,1,0.540393229010541,0.206489043314655,0.208870211475717,0.892100406195161,0.321224840470276
9,2.60658065517743,3,-0.803305031531838,-2.44207195876548,2.60658065517743,0.00498284692483887,0.00475618045263747,0.00688839719923488,-0.043658116038334,-0.310805102900979,0.316281369367678,0.0204186188116321,0.203512349496519,0.205898810743112,15.4098620920916,1.83103089153362,1.77591014180817,0.0297438223686512,0.0601738222747424,0.12108399157676,0.489296430289549,0.00618790638635681,0.00744280392234791,NaN,NaN,NaN,NaN,2.98365709536118,-106.900241715489,1.90909112549828,stable,stable,1,0.736267936862605,0.089782225404937,0.0593259900127019,0.956787837839417,0.346184892632551
10,1.87120054895375,2.94306826591492,-1.12261420991742,-1.46522813628876,1.87120054895375,-0.0771057324736752,0.00380991989859054,0.0771998022661693,-0.072917742883823,-0.117959168750225,0.145031184122607,0.00935417385826663,0.182957986145694,0.185165116701454,15.4680006135965,0.846573886423342,0.946978031304483,0.17639445358192,0.24028336229708,0.157742834426932,0.38578721428107,0.159511715577265,0.0366993892043358,NaN,NaN,NaN,NaN,1.92399487038037,-126.353098118705,1.79395836403729,stable,stable,1,0.536019836394624,0.255323533398394,0.237433448289094,0.89771057956975,0.32989207358803
11,1.8731682835793,2.62919998168945,-1.16218331516424,-1.45253610031561,1.8731682835793,-0.049521436173717,0.000763029289294948,0.0495273142256255,-0.0730663375333381,-0.111927809440701,0.137005193292017,0.00884056465534029,0.128761860444807,0.130994189223366,15.3575386093237,1.13259434013553,1.27121652505013,0.176965835811596,0.240217317080241,0.178487777491797,0.521320021072463,0.159504749076005,0.037821097451764,NaN,NaN,NaN,NaN,1.90759543141243,-127.844704273722,1.53720215806191,stable,stable,1,0.525710380132487,0.179187139682816,0.192156409745121,0.892629996724886,0.320672098892535
12,2.62150103727976,3,-0.781687492859471,-2.46884865183267,2.62150103727976,0.00810697199942514,0.00183387770589232,0.00831180500490911,-0.0406927398566504,-0.31737218918204,0.321995052619132,0.0207941567636911,0.200328326741547,0.202885778651,15.3129392790249,1.99339895593157,1.81817148034066,0.0289287382958812,0.0771801317704093,0.117705538946716,0.515677070529601,0.00685144324746815,0.00445750303447073,NaN,NaN,NaN,NaN,3,-106.299635778902,1.89533086490505,stable,stable,1,0.739644099004804,0.0866860975296196,0.0566776545998884,0.955587577424206,0.347686427134793
13,1.97037447147629,2.69579815864563,-1.03837314457963,-1.65879659549892,1.97037447147629,-0.0387041151699281,0.0161061323972024,0.0419215461533001,-0.058779157739478,-0.1454907318458,0.159509644933979,0.0102951684076957,0.128486928772882,0.131052526299365,15.3555721820756,1.35251875354994,1.24268018605006,0.177429810121717,0.243318835626997,0.175903114338597,0.451507165758767,0.156679757319316,0.0412523603643762,NaN,NaN,NaN,NaN,2.02726066309477,-121.319262228342,2.11864870238059,stable,stable,1,0.55164369765355,0.170905946407873,0.187179873856516,0.890894246127999,0.321820838071735
14,2.59385736569309,3,-0.695619201484808,-2.46287751226756,2.59385736569309,-0.0144778549966163,0.0156570347313796,0.0213248920720054,-0.0361241421455816,-0.32586489743025,0.329717234139695,0.0212824652430762,0.206760194835991,0.208687730956324,15.3863085292947,1.68090447129674,1.37846101581412,0.0623790204506258,0.240448892044513,0.121372988376474,0.449031815200706,0.00192283040302781,0.00896492899907044,NaN,NaN,NaN,NaN,2.96211416560549,-104.652706865072,2.26684600293441,unstable,unstable,0,0.733432843709421,0.0952916562655901,0.0612895592310688,0.944772618090245,0.346056449610456
15,1.74676126930989,2.48541116714478,-0.942255268429991,-1.44909995131214,1.74676126930989,-0.0575535097522451,0.000179252508735231,0.0575537888958117,-0.0501647265288142,-0.112532261403254,0.126549911056239,0.00816180211970562,0.140872494963358,0.142808805326143,15.4575963676608,0.804604020432268,0.856695814886789,0.176839410928462,0.240202269580305,0.13577987604964,0.385768486410831,0.159450772894609,0.0368833748926476,NaN,NaN,NaN,NaN,1.78867162897179,-121.8764556945,2.27257463560713,stable,stable,1,0.494364766214534,0.176747754977081,0.190327799486229,0.898527224401119,0.339653388422382
16,1.76444102724393,2.47276830673218,-1.00154930117639,-1.4385723807766,1.76444102724393,0.00487442953367328,0.000862193108821761,0.00495009497238649,-0.0547245430475221,-0.109607551584254,0.124840162737515,0.00805984837715538,0.12770328750094,0.128671809860557,15.438797440628,1.73115973555529,2.00447382930957,0.0173776072775403,0.0459516097318998,0.128484179671056,0.423405036081743,0.0002636789304428,0.0076129591290165,NaN,NaN,NaN,NaN,1.79698325918466,-123.928221238646,2.36346342639165,stable,stable,1,0.49625196923716,0.160281155296459,0.0990542325878158,0.961959789780149,0.342895920146197
17,1.85106895529494,2.72899174690247,-1.01450094532403,-1.51619174450396,1.85106895529494,-0.0642395794013889,-0.00171119148942666,0.0642623664206419,-0.0609020170960453,-0.125711190394738,0.145398951675973,0.00937824677430623,0.185819053430027,0.188121188139822,15.4529731358337,0.857638728023709,0.979852253959826,0.176895897554379,0.24028667489053,0.150498871341042,0.419142719756188,0.159548975783685,0.0381744228081212,NaN,NaN,NaN,NaN,1.90606506718967,-122.683382350962,2.12167998574629,stable,stable,1,0.531242625706615,0.209314061955478,0.210380701371009,0.897114622078654,0.333111612737315
18,1.80963978962022,2.67395210266113,-1.03984539433467,-1.45229020633275,1.80963978962022,-0.069679957009086,0.00780792966864242,0.0701160479098654,-0.0631124129622436,-0.116112466908945,0.137394050343917,0.00886210010112984,0.178293959999021,0.18048496864864,15.4436313928811,0.884541289068696,1.01373398512297,0.177120163818619,0.240262583810156,0.172281416110823,0.492944533623891,0.159484449862843,0.0361115020857384,NaN,NaN,NaN,NaN,1.87952489310621,-124.36494621675,1.75548151475854,stable,stable,1,0.518667604295121,0.20732487921768,0.208408360551332,0.896524898079184,0.323430481728523
19,2.60312152306239,3,-0.779870788741621,-2.44617062534625,2.60312152306239,0.00966152439135597,0.00453172359709616,0.0106715309269685,-0.0417931836973397,-0.313562357778971,0.318581607112265,0.0205787200644498,0.199021920676975,0.20138680023059,15.2968249292721,2.15590321329289,2.09809224340656,0.0198287435433121,0.0814723505997483,0.135676005849986,0.504830497949643,0.000125197204354658,0.00544097097600787,NaN,NaN,NaN,NaN,3,-106.031594526481,2.27375457159988,stable,stable,1,0.734443099529422,0.0912541046475735,0.056786640890846,0.95666137821142,0.339699552955562
20,1.88175663331739,2.55189943313599,-1.00878014710618,-1.56745011176388,1.88175663331739,-0.0514974144441185,0.00458580052413051,0.0517011920643656,-0.0567273771770823,-0.130840157221512,0.145968624668653,0.00941342819205443,0.147921511109329,0.150188025221401,15.4542541282457,0.748686317599027,0.771724833072432,0.175642450861752,0.240203502193632,0.10735570336083,0.4473619200025,0.159578403325293,0.037322202954002,NaN,NaN,NaN,NaN,1.95533603544456,-121.682915799118,2.37215023829834,stable,stable,1,0.531839373928917,0.160260681837651,0.180651854078924,0.900232686956705,0.352286354061853
21,1.93412424484889,2.71425294876099,-1.10215898547763,-1.56601476182307,1.93412424484889,-0.0722755538190644,-0.00209615430716556,0.0723059440345808,-0.0684988694498473,-0.132336385728107,0.15332472382639,0.00989032212573656,0.170956155394825,0.173350443088824,15.4196965913744,0.878934599183202,1.0288648210264,0.174533804156487,0.240288828441795,0.154766925195023,0.475007142494678,0.156890101693374,0.0386962706292863,NaN,NaN,NaN,NaN,2.01006102178809,-122.843348050567,1.67566219790247,stable,stable,1,0.550436553910801,0.188785048119895,0.197071334095803,0.897743245334396,0.331214699913323
22,2.6236013674736,3,-0.732723484887155,-2.48755968411426,2.6236013674736,0.0059151195784994,0.00629157810971156,0.00863554252716925,-0.0364610899788741,-0.32204648842212,0.325704364630984,0.0210251168815846,0.189511452036229,0.192102944566763,15.4265969059366,1.77259220734033,1.68084707280181,0.0203120327012926,0.0488775488324627,0.121187266719897,0.474341180284596,0.000327217640614941,0.00650625908021592,NaN,NaN,NaN,NaN,3,-105.373889448931,2.23152802387387,stable,stable,1,0.738047620239647,0.0862728751150871,0.0542750675243536,0.962709817876808,0.346138992568935
23,1.72332982546618,2.28793478012085,-0.838472889540043,-1.49352786891526,1.72332982546618,-0.0343727292277515,0.000872896392419601,0.0343838110551495,-0.0384347174847485,-0.11792417714482,0.125421962900252,0.00808836938388096,0.103579954939356,0.105630905434532,15.4615258167531,0.700272181541962,0.775504730595394,0.17610771303504,0.240204601134664,0.136994963832796,0.405668084307281,0.15955422556801,0.0367354242823042,NaN,NaN,NaN,NaN,1.75191981509009,-118.497538474994,1.67172558292585,stable,stable,1,0.480680801211221,0.133339813490744,0.16427521333844,0.900350753458544,0.339113349407646
24,2.6692774966911,3,-0.621137035990339,-2.55832971540417,2.6692774966911,-0.0279992061355689,-0.00698115998943131,0.0288564055110839,-0.0270740123810523,-0.336088172717248,0.338374259007393,0.021833638140408,0.205699575535125,0.207762351643217,15.430233270123,1.48648125445105,1.15599121682748,0.0632080048575969,0.240233302639897,0.105217728666937,0.44267953752975,0.00189422965019086,0.0080166878039426,NaN,NaN,NaN,NaN,3,-102.185830974197,1.69008855446447,unstable,unstable,0,0.753359802779604,0.0797029042548671,0.0515787815988832,0.947633713868299,0.353236565036917
25,1.75239237960504,2.47955965995789,-0.948995326948862,-1.45333776095698,1.75239237960504,-0.0446340427048344,0.00501795993914347,0.0449152278200593,-0.0505803118861319,-0.112925625079631,0.126871214328176,0.00818317621301483,0.138595320102417,0.140614561339077,15.4518760830743,0.897753006432886,0.902642991700423,0.177066147263322,0.240244431481327,0.164973725339001,0.452072872383614,0.159588252832648,0.034024063964223,NaN,NaN,NaN,NaN,1.79680657025774,-122.144595008979,1.62291993870623,stable,stable,1,0.495427546829159,0.171847096513068,0.186408757173988,0.897320957811577,0.326678344293777
26,1.84366702318192,2.74815654754639,-1.03490059771239,-1.49385585527487,1.84366702318192,0.00621039609737291,0.00162451724019176,0.00641935167676184,-0.0624024430088582,-0.121551457651877,0.142277438763568,0.0091886126958272,0.195569165584986,0.196616539467891,15.4002605687617,2.12326393286781,1.98750391013984,0.0210412465689484,0.0531581007182193,0.138447737828473,0.44265143070497,0.000197468006242775,0.0050759174285222,NaN,NaN,NaN,NaN,1.89015622586425,-123.159855511628,2.19758919752589,stable,stable,1,0.530967847408756,0.204687024122746,0.124745766187804,0.957180486520466,0.338467672076234
27,1.69985426607586,2.41833186149597,-0.819507089085507,-1.4696459443527,1.69985426607586,-0.0429443168335043,-0.00146029155584237,0.0429691377586805,-0.0389174480430763,-0.115447987726898,0.124212338398586,0.0080105421576552,0.132769398608293,0.134621304686439,15.4635569200712,0.779497744817411,0.757561888572253,0.177107111002316,0.240218835363719,0.12729592972289,0.404582087274171,0.159546112159787,0.0350614904609668,NaN,NaN,NaN,NaN,1.77620387229689,-117.832865156267,2.03186192777439,stable,stable,1,0.480218731890851,0.169535134225283,0.185380096612194,0.899369547379352,0.343424031234271
28,1.69214550694641,2.61094260215759,-0.959383963632172,-1.36594823874854,1.69214550694641,-0.0665357314254072,0.00115150662097684,0.0665456950058535,-0.0542148667722409,-0.102693509920998,0.120781750868018,0.00779193854076802,0.1754040139671,0.17726352341946,15.3629581607156,1.06279451331032,1.09055730286945,0.177096946639656,0.240253526304917,0.150811946616349,0.488216284839548,0.159486489057141,0.0367300800120148,NaN,NaN,NaN,NaN,1.77693740749085,-123.63065316624,1.5,stable,stable,1,0.486691506536267,0.218929390506923,0.215596911061192,0.89453233383876,0.332972468170512
29,2.6230147866408,3,-0.513529499875631,-2.53893943348463,2.6230147866408,0.00595969442427399,0.00266578593505893,0.00652873435531578,-0.0229510923928925,-0.335170451407039,0.336808974893014,0.0217492575413299,0.198857707083903,0.201565268925187,15.420752937935,2.00615640701935,1.8612749132682,0.0157529694739376,0.0514411188060547,0.12873411402058,0.431656220583967,0.000326931380648447,0.00508748423331133,NaN,NaN,NaN,NaN,3,-100.208461528465,2.41254105938739,stable,stable,1,0.739783663555918,0.0860186076376272,0.0536064616850787,0.961736554889343,0.342784838213075
30,1.84022060300217,2.58072066307068,-0.940568735653899,-1.56210042865053,1.84022060300217,-0.0638489035886511,-0.00462758653272815,0.0640163810800856,-0.0503512726713272,-0.13038856155199,0.142608516060754,0.0091980804876394,0.147891809898346,0.15024692178065,15.4609166194313,0.944089742355904,0.841371563791616,0.176796834961681,0.240247072479345,0.161409062088042,0.387716995780657,0.159558991314002,0.035322057455,NaN,NaN,NaN,NaN,1.90894849737311,-119.745808657761,2.08330098095005,stable,stable,1,0.520774878490042,0.178348850046763,0.190768801807816,0.897572957970858,0.328262639071981
31,1.88991137426727,2.70677781105042,-0.941697244806668,-1.61714736687625,1.88991137426727,-0.0594869365820319,0.00184365732769085,0.0595154996304042,-0.0508789151233331,-0.139606228689268,0.151658500326137,0.00978661705350597,0.154540831051717,0.157024688892648,15.3490805479423,1.2436406486075,1.19517833020208,0.176906213539893,0.240253358071932,0.171466838103372,0.51853742434199,0.159481313907528,0.0365015358909135,NaN,NaN,NaN,NaN,1.95935225919259,-119.13516242978,2.0558027710404,stable,stable,1,0.535381304249801,0.194706123208449,0.200977543662485,0.892384744110835,0.323792516398501
32,2.62860277533531,3,-0.646109541196076,-2.51220447096839,2.62860277533531,0.00677544264509156,0.00223308001987659,0.0071339518790147,-0.0316252994427167,-0.328436385905502,0.331443939560829,0.0213955874828626,0.199816229054448,0.202419298135776,15.4314768421299,1.79623309878418,1.68082426902894,0.0226933792599361,0.0517998971363904,0.121838525658352,0.473753328392882,0.000364153887794688,0.00635877497930831,NaN,NaN,NaN,NaN,3,-103.01941117063,2.14075887704867,stable,stable,1,0.741444599716572,0.0848722667273742,0.0533974880194353,0.961333573908643,0.345849544151844
33,1.86822519010427,2.6953489780426,-0.811855580797121,-1.66259789900253,1.86822519010427,-0.0535079628686773,-0.000116024018635384,0.0535080886588995,-0.0384870431494491,-0.147388170159257,0.15441548132206,0.00996116475238231,0.150865830155753,0.153367941724603,15.421811082694,1.06067265424948,0.926217444990001,0.176974900019239,0.240238485509313,0.164379562147722,0.40851697455307,0.15959523398043,0.0359068799556125,NaN,NaN,NaN,NaN,1.93692079365451,-115.089103932968,2.01840220032638,stable,stable,1,0.528866972372726,0.195912668540256,0.201535863483154,0.895901270639213,0.326942416823235
34,2.67485870420933,3,-0.595206995059126,-2.57067024666532,2.67485870420933,-0.0316267831055891,-0.00665044529400314,0.0323184441490692,-0.0246605310699518,-0.340143839797169,0.341997750510396,0.022064353952372,0.200241487801326,0.202370952908725,15.4197029883383,1.37812998111251,0.982816545904915,0.0631148723857406,0.240205377118618,0.0945693980610881,0.39441089351514,0.00189343891581207,0.00984700459172575,NaN,NaN,NaN,NaN,3,-101.157933097739,1.78004041766045,unstable,unstable,0,0.753769845037566,0.0790818396468973,0.0518713611376117,0.949892269666278,0.357969156417294
35,1.81589890009648,2.61555671691895,-0.821008647330747,-1.6074150032662,1.81589890009648,-0.0467838564975468,-0.00250292798013406,0.0468507617574868,-0.0377059387513459,-0.137089426979965,0.143445581944395,0.00925310025339944,0.127918773069803,0.130180873064761,15.4167558533092,1.02800449780572,0.899263379742074,0.176406670145953,0.240226472977488,0.156380689868388,0.449450537433676,0.156670173092635,0.0390919916153685,NaN,NaN,NaN,NaN,1.86137587595629,-115.841095627455,2.14090035100517,stable,stable,1,0.510275881305347,0.18851231510726,0.196953846783843,0.896653845889148,0.330497471169606
36,1.97064122080803,2.72612977027893,-0.885268338751733,-1.74708725567771,1.97064122080803,0.0025458459420659,0.000139452867577289,0.00254966246060316,-0.0434955801301249,-0.160169721437832,0.167523764932136,0.0108137557915946,0.137841875150663,0.139119916111533,15.3612719705878,1.74604049879072,1.69126809366502,0.0289912473914323,0.0749425148173478,0.112728976560398,0.485304479569296,0.00882687547711326,0.0079765672870673,NaN,NaN,NaN,NaN,2.00134863438598,-116.022448666907,1.88986494180416,stable,stable,1,0.553328308771114,0.17045236174873,0.109095042739414,0.958496951649275,0.349898232639823
37,1.81233360235756,2.65451574325562,-0.820140604577965,-1.59527080031411,1.81233360235756,-0.0611275117516473,-0.00601076758678355,0.0614223250938135,-0.0393707458808471,-0.135688697517681,0.143610667182924,0.00926152557709496,0.148704447803085,0.150893574528015,15.4572157053374,0.837601010662892,0.743538247407656,0.176106139990738,0.240248140742183,0.11874900125904,0.406019178369688,0.156778251261936,0.0427349494992417,NaN,NaN,NaN,NaN,1.84847057739295,-116.145839673518,2.26681052997273,stable,stable,1,0.513467675534284,0.200751741302596,0.205670249200728,0.899523692976934,0.347222666107093
38,1.94794468814824,2.65766310691833,-0.766366643834043,-1.77456936959327,1.94794468814824,-0.0475346592668963,-0.0019666397546237,0.0475753245237949,-0.0340192964516184,-0.166148769664138,0.171087791106788,0.011034462058393,0.131232033384608,0.133920351527021,15.4490975581151,0.936414492522314,0.782317315197882,0.175954336843394,0.2402414561641,0.110534384259196,0.450784618529991,0.15955803253893,0.0374152491152207,NaN,NaN,NaN,NaN,1.9993932608471,-112.620106358339,2.14527869059016,stable,stable,1,0.546235987144935,0.168408787052634,0.185565498492801,0.89851851023193,0.350873606995913
39,2.62955454031626,3,-0.624786746755447,-2.52213819499828,2.62955454031626,0.00557418023931348,0.00431966851322363,0.00705202250453645,-0.0292366964986819,-0.330512473839933,0.333032427416077,0.0215019711555963,0.189513202587351,0.192093707268679,15.3383434897364,1.90275346534789,1.75858366789188,0.020053102636573,0.0746056266556362,0.115575350656788,0.505978627380776,0.000188736738564871,0.00644572927990063,NaN,NaN,NaN,NaN,2.9987372183553,-102.731971335258,2.28473310259905,stable,stable,1,0.739633285538073,0.084643099221339,0.0532136440840486,0.961205799777687,0.348633177485872
40,1.89827605034854,2.65503883361816,-0.293330674407426,-1.86392474770211,1.89827605034854,-0.04409116067198,-0.00981861528243779,0.0451711816921683,-0.00688421395455441,-0.182338019403363,0.1825968638482,0.0117761129779795,0.120223074656721,0.123318511191752,15.4590171318377,0.944772860399302,0.480622660280387,0.176133986999194,0.240226247604264,0.0985648140950827,0.399843499704439,0.156664502097336,0.0422668258503181,NaN,NaN,NaN,NaN,1.96262077332345,-97.9255988407311,2.38283826252801,stable,stable,1,0.530870648997961,0.178553009545896,0.192130228181015,0.900733470266491,0.356193415957741
41,1.87839787022597,2.7087779045105,-0.256338616314285,-1.83480550290087,1.87839787022597,-0.0649255241303098,-0.025663623309652,0.0698136465526272,-0.00858501358014869,-0.182816110510619,0.183323476691964,0.0118225308820222,0.191595018096471,0.194515892783914,15.4715373691363,0.925278182326083,0.533677221476439,0.176324430223565,0.240278560119126,0.121854122992949,0.38197042538034,0.159557633085355,0.0362095035101144,NaN,NaN,NaN,NaN,1.94919332297993,-97.076725643542,2.33615944672521,stable,stable,1,0.539809277283708,0.199634676248667,0.203862401528187,0.900374563858341,0.345842612003134
42,2.62214163978895,3,-0.637917280393216,-2.51064867354066,2.62214163978895,0.00644073501114585,0.00332775770526797,0.00724962335771799,-0.0302990621491163,-0.327447233018341,0.3301174567393,0.0213115097609878,0.190831298210052,0.193428035931612,15.3532294267292,1.83383822748925,1.60535391125645,0.033746440738115,0.0788314214191825,0.112252621467331,0.485306007289373,0.0207072833189093,0.00457394951672536,NaN,NaN,NaN,NaN,2.97766096785849,-102.83550377438,1.64243062918814,stable,stable,1,0.737923377796708,0.0863472286630689,0.062674828598186,0.956104555683655,0.35010994601452
43,1.8229043612609,2.73951816558838,-0.234669766059409,-1.78823508028078,1.8229043612609,-0.0567659614320394,0.00117582978936185,0.0567781379845917,-0.00637597972684361,-0.170263752060928,0.170548741729582,0.0110005001070145,0.14871073101194,0.151720939650239,15.4584218340375,1.02521031538828,0.649759747548362,0.176257865002256,0.240245436279129,0.171042029202899,0.35898788386811,0.15670939023505,0.0394674803350342,NaN,NaN,NaN,NaN,1.87761184680711,-96.9149867627548,2.43484838977964,stable,stable,1,0.516452017599622,0.216647431270857,0.21398888767568,0.898710588432941,0.323981320354267
44,2.46854637914048,3,-0.581313337309273,-2.3677568547926,2.46854637914048,-0.0108238376647643,0.0148713266804005,0.0183932547154755,-0.0279937214052837,-0.304174043021784,0.306693873013081,0.0197880262395396,0.21663155362959,0.218328807841884,15.4360490109242,1.41604144293339,1.04888490528762,0.0624644531153143,0.240466191467786,0.109881948662311,0.407936458099816,0.00196249050044829,0.0121177284054224,NaN,NaN,NaN,NaN,2.70268226585959,-102.84402520654,2.32241644966139,unstable,unstable,0,0.701944796005839,0.122949161391228,0.079048161527817,0.949400494992035,0.351163578372306
45,1.68530332555576,2.40528154373169,-0.227972071468442,-1.65291316871399,1.68530332555576,-0.0485887031177684,-0.0258605275277895,0.0550420653199187,-0.00574343446850565,-0.145172877128183,0.145438759832009,0.00938254923765709,0.133663835920078,0.136075311963975,15.40174846204,1.05121604602148,0.832178160095928,0.176590793848416,0.240240554401856,0.141059558325351,0.434266973705067,0.159505643665365,0.036452962480193,NaN,NaN,NaN,NaN,1.74484723470437,-96.8322370152764,1.9557084182697,stable,stable,1,0.476629282540998,0.172086144398235,0.187398706543618,0.896906505742012,0.337306862966511
46,1.66245257236487,2.41945743560791,-0.221892148680211,-1.63008885045756,1.66245257236487,0.00187204745786717,0.000416054018508624,0.0019177232936021,-0.00552777763727211,-0.140730718241997,0.140991485403106,0.0091022953078979,0.142553913934683,0.14363797084089,15.3781997191945,1.87985444144177,1.69728560157052,0.0198446797046095,0.0677059731385581,0.12337036760181,0.481280540086911,0.00028536565768292,0.00869932611147497,NaN,NaN,NaN,NaN,1.71876069037497,-96.5690723186371,2.27413931362995,stable,stable,1,0.472048280132144,0.170677676833511,0.105696826594563,0.961971559809741,0.345168725510307
47,1.7832110248156,2.52687478065491,-0.15079582985526,-1.75952565154411,1.7832110248156,-0.0562286308848086,-0.0211139873566579,0.0600621294434118,-0.00350617846895888,-0.163912787834062,0.164033828412934,0.0105817636515111,0.136287612958715,0.139011800245091,15.362565681349,1.12119916663702,0.729099264712399,0.175781793484397,0.240232849388818,0.129753809307323,0.372823780241965,0.156681906848792,0.0414535131408973,NaN,NaN,NaN,NaN,1.8330973949862,-93.5355183886098,1.53469228619709,stable,stable,1,0.503325299999846,0.178335735461802,0.191711849099497,0.897571044154342,0.342331640307857
48,1.68729744963094,2.64101266860962,-0.194885850971453,-1.65077418032576,1.68729744963094,-0.0601144741756729,-0.021007789843837,0.0636794883737335,-0.00589324140165816,-0.147472113616128,0.14780329769913,0.00953440066181767,0.160105137503524,0.162538870197696,15.3741109922098,1.05693025395606,0.838749894116753,0.177253587527193,0.240202836219242,0.121155329317972,0.43731073746058,0.15947415263396,0.036673420281055,NaN,NaN,NaN,NaN,1.76093856199151,-95.8152911333806,1.5,stable,stable,1,0.482453760607791,0.22626049713872,0.219969488646991,0.896478576501546,0.34615318696979
49,2.62561303257942,3,-0.667944745438575,-2.50744048162294,2.62561303257942,0.00648549749592879,0.00254831846878083,0.00696818518611755,-0.0319655862295519,-0.327006006411011,0.329942865228837,0.0213044999397849,0.193819032754846,0.196440094039126,15.3877632423914,1.90993329659497,1.93533624916401,0.0341714824418642,0.0684406269145603,0.114373758597352,0.484378193894334,0.0249300148122578,0.0050406876862929,NaN,NaN,NaN,NaN,3,-103.690253195533,1.55099649253181,stable,stable,1,0.739451494162338,0.085514568287085,0.0642217248959468,0.952701426633819,0.349167218401177
50,1.63241248187565,2.59376358985901,-0.169151280565212,-1.59981716291833,1.63241248187565,-0.0551991652711684,-0.0277120479841031,0.0617649208702399,-0.00485254031442396,-0.13978799982642,0.140051945332468,0.00903288076925719,0.166097631323087,0.168405818975165,15.4548470296475,0.900725948873937,0.720169093910535,0.177060893303337,0.240217121935966,0.155546037839051,0.393542431478521,0.159539834459122,0.0362694856504427,NaN,NaN,NaN,NaN,1.72627812567413,-94.411640590645,1.5,stable,stable,1,0.468991158961872,0.227627568122467,0.220672037839312,0.898733949440739,0.330868427627089
51,1.59509225632693,2.34383249282837,-0.141492710494513,-1.5683021868312,1.59509225632693,-0.0529709345121411,-0.0255942129849621,0.0588301252880626,-0.00371581044540128,-0.133481837864943,0.133650748243807,0.00861975408208884,0.156152835880735,0.158307799196055,15.4513531841996,0.827948263902102,0.645096966964797,0.175496609765888,0.240165937712242,0.132216091381811,0.403753269643772,0.155973294423004,0.0422633416255034,NaN,NaN,NaN,NaN,1.64198518080473,-93.7945426045898,2.07500680892125,stable,stable,1,0.457019494859726,0.179252076182301,0.192241197761202,0.900677768303102,0.341237292719195
52,2.61360472003619,3,-0.629059713195515,-2.50372135445847,2.61360472003619,0.004959521593656,0.00444576263966456,0.00666045493087202,-0.0298191408411721,-0.326363823013865,0.32894020771959,0.0212350606984959,0.199441384223395,0.201981477139132,15.3970315497131,1.95649059443819,1.52001743167953,0.0282434029263402,0.0755905469960809,0.113266569986645,0.44869208713104,0.0060586548153611,0.0040846788303743,NaN,NaN,NaN,NaN,3,-102.899260755177,1.91655089270598,stable,stable,1,0.737357554104143,0.0881600213958507,0.057074086067504,0.958562878331619,0.349659302228158
53,1.72338049476211,2.53228092193604,-0.142314110049755,-1.69988524117147,1.72338049476211,-0.053614692716811,-0.0303101796980564,0.0615893031982546,-0.00339558784692775,-0.153751210745871,0.153878785811291,0.00992401937539475,0.139596688880561,0.142148336582813,15.4630364163354,0.948892466107632,0.506989529503736,0.17632929474066,0.240195509962671,0.108504175690882,0.3857641042383,0.156706386566223,0.0411268159544442,NaN,NaN,NaN,NaN,1.76767167051157,-93.7767495596924,1.67432959498323,stable,stable,1,0.487997799253126,0.193293968367146,0.200578869740225,0.900396279807009,0.351775921915164
54,2.66119898975743,3,-0.583255673596071,-2.56268677910272,2.66119898975743,-0.0272593839359742,-0.0014935585674554,0.0273002697745511,-0.0257270974403483,-0.34131301759901,0.343267908442487,0.0221538193068851,0.199843466384619,0.201892735045789,15.4188735819134,1.60569211204879,1.28066227678715,0.0627337342113139,0.240307186170548,0.113043465246755,0.408990714734324,0.00189246662367806,0.00907257510982314,NaN,NaN,NaN,NaN,3,-101.106544404973,2.15686744078818,unstable,unstable,0,0.750031610944472,0.0812352767632461,0.0528813805568918,0.945954634124918,0.349758459890331
55,1.64808646108017,2.39910793304443,-0.16134771242054,-1.62547789930072,1.64808646108017,-0.0362649641497128,-0.0229410104450684,0.0429119748441003,-0.00361607088215779,-0.140570629599006,0.140709317300637,0.00907626132116052,0.128974813556751,0.131448690890183,15.4134861595127,0.943865703588687,0.778416239021104,0.176009345187108,0.24021620010678,0.140718844629427,0.43570693122163,0.159608122000295,0.036076423116389,NaN,NaN,NaN,NaN,1.6954412846166,-94.4207914550518,1.90079316997294,stable,stable,1,0.46577946113275,0.176847026580043,0.190163858374319,0.898463112143083,0.33745829127581
56,1.71140041828156,2.40823698043823,-0.0928211219360809,-1.69800499733557,1.71140041828156,0.00328151412589298,0.00329506553322638,0.00465035394638856,-0.00159865129290243,-0.151021263613396,0.151061365372678,0.00975455662654126,0.121795831585747,0.123051908246705,15.3822306958701,2.08444655203406,1.92843286182292,0.0199188305987252,0.063555732328242,0.126164612065707,0.416383128535924,0.000150435483461828,0.00716823397350485,NaN,NaN,NaN,NaN,1.73280982852964,-92.1431804697514,2.2569534584618,stable,stable,1,0.480983826524422,0.157640791375424,0.097257965575946,0.958510817877475,0.343926839081908
57,1.59817289778975,2.29063582420349,-0.17576677022116,-1.57285188576598,1.59817289778975,-0.0454457652578861,0.00244275417603853,0.0455113681165425,-0.00394739145390053,-0.131242348811141,0.131396970062931,0.00847625336370136,0.116810292776792,0.118891713963482,15.38050700883,1.02161110987505,0.831719963164324,0.177109542706786,0.240195497713001,0.141786127220258,0.413846727838598,0.159416742660653,0.0360961297937049,NaN,NaN,NaN,NaN,1.65239533729994,-95.8334835366937,1.58705790628653,stable,stable,1,0.449957782203298,0.164147909264457,0.18246649656516,0.896883341644155,0.336983943457663
58,1.6387057989633,2.39258337020874,-0.1051595398978,-1.62061607554229,1.6387057989633,-0.0457481662135565,-0.0283483151320821,0.053819343016531,-0.00217739833056261,-0.139804203334044,0.139883246846624,0.00902346736365887,0.133386547750413,0.13575679557487,15.3788124137995,1.05831587665899,0.761829666270219,0.17622682289596,0.240198226485592,0.126504804604842,0.464043083321199,0.159573194380325,0.0381046085400957,NaN,NaN,NaN,NaN,1.68060545220575,-92.4282145747537,2.17310826330466,stable,stable,1,0.464139572171854,0.179489333083255,0.192471240861849,0.897585445000433,0.343775642397848
59,2.53578385988871,3,-0.525384238987229,-2.44588355996815,2.53578385988871,0.00953616790127848,0.00177599651633205,0.00970013720868925,-0.0241568353748503,-0.31325346185156,0.315157342380042,0.0203439931801704,0.212822800560592,0.215318483103456,15.3675894106877,1.76208565030277,1.60001869512572,0.0308594339837255,0.0695534371713124,0.110064017513552,0.448341109747508,0.0106931229385066,0.00540847136533524,NaN,NaN,NaN,NaN,2.78982386220964,-100.41262924442,1.8237208310413,stable,stable,1,0.719272725924348,0.106226990013299,0.0704554099518822,0.958153748865485,0.951082658882866
60,1.67661515709494,2.41970920562744,-0.0847075352446868,-1.65913324308939,1.67661515709494,-0.0483050981011872,-0.0131851141339239,0.05007224517924,-0.00177428779075855,-0.14654206932893,0.146609620297718,0.00945691003773005,0.132684206337598,0.135092821176317,15.3682168244845,1.0035611276959,0.762876197358288,0.177252017378469,0.240206341957749,0.128609230241389,0.430225142260429,0.159439537952872,0.0362683621705418,NaN,NaN,NaN,NaN,1.72864210057146,-91.9462754292346,1.57413409407041,stable,stable,1,0.474115939460582,0.176376072536006,0.189876155724289,0.897494840899625,0.342840342114938
61,1.59744943445232,2.35291719436646,-0.190623655714833,-1.5636695429259,1.59744943445232,-0.0598927998280621,-0.0203213614225191,0.0632463848872722,-0.00507098305314298,-0.132953371150383,0.133234101783108,0.0085940970580791,0.163849242980365,0.165945773975112,15.4222958687297,0.917474147758186,0.762592705074976,0.176938133365695,0.240193245794996,0.123931808840783,0.387993042228289,0.159550111465761,0.037783776142975,NaN,NaN,NaN,NaN,1.6541677253945,-95.777639022521,1.97661451522717,stable,stable,1,0.459175670648974,0.181575416543348,0.19359596553854,0.898330408044892,0.344919196070763
62,2.61629900018374,3,-0.530652711212562,-2.52743351963672,2.61629900018374,0.00442981569492454,0.00344245633954076,0.00561014908363798,-0.0240886764273678,-0.332659315905951,0.334411272544473,0.0215922978126376,0.201329053042605,0.203991289851429,15.4009162133686,1.91276918657057,1.77545381770664,0.0339319363782819,0.0567026420266708,0.118975341492057,0.463371302553306,0.0251390556715371,0.00490621835811172,NaN,NaN,NaN,NaN,2.96888331606625,-100.576107342626,1.58822304421487,stable,stable,1,0.738477991352617,0.0873612522906585,0.0653737444091391,0.954055136777252,0.347122070447975
63,1.51610462681777,2.270015001297,-0.0919470372635292,-1.49250123266581,1.51610462681777,-0.0504022196754093,-0.0248103775935514,0.0561777410060499,-0.00217518926507473,-0.121113407899979,0.121234849914272,0.00782205080418136,0.150157109071678,0.152135159916949,15.3640282620179,1.12949659800819,0.890014922291823,0.177348993859247,0.240193286195003,0.140304603620537,0.434142949637712,0.159452501027495,0.0384793439524399,NaN,NaN,NaN,NaN,1.60300708299886,-92.1234906695166,1.85029301827479,stable,stable,1,0.434721599134795,0.179929086775602,0.192817719009782,0.895457912553733,0.337642398390873
64,2.67734069132405,3,-0.627119398190915,-2.56888407606544,2.67734069132405,-0.0250911082473849,-0.00766810827662829,0.0262366841964468,-0.0284485284618628,-0.3396850015486,0.342063821839236,0.0220802685597439,0.196511605845926,0.198567924619384,15.4029268351695,1.72860284821051,1.50912232839722,0.0624773375690584,0.240295824056868,0.128377987653495,0.445326892505576,0.00190136818104543,0.00691251808788088,NaN,NaN,NaN,NaN,3,-102.201792877698,2.04340698968803,unstable,unstable,0,0.753671102610289,0.0774084032214381,0.0498037373988196,0.943322061970696,0.342943116598446
65,1.52083398764198,2.13667511940002,-0.147452002578791,-1.50292877251501,1.52083398764198,-0.0412999291039507,-0.0241677872932157,0.0478515003593563,-0.00260075147835225,-0.119374715215694,0.119454301883499,0.00770467828098864,0.113898192946392,0.115896371328744,15.4311126882131,0.843255517653329,0.658278188762595,0.175459412826002,0.240165175213348,0.143130584811079,0.39655402150762,0.156628752799894,0.0416893909922546,NaN,NaN,NaN,NaN,1.55228808798252,-94.2268777224065,1.75100402573631,stable,stable,1,0.42873500430361,0.147337029711442,0.173174775391678,0.900472528750874,0.336386406750631
66,1.59011999130249,2.40534067153931,-0.123821170691018,-1.57436417131445,1.59011999130249,0.00288696145720775,0.000850545352010654,0.00300964679841838,-0.00222781888587328,-0.129644988579768,0.129704681524215,0.00836989915484334,0.109031508992133,0.110060078659133,15.4228907218117,1.48000979335114,1.46328453800065,0.0324035428076016,0.0561392242684973,0.103712879375026,0.435397073408765,0.0199026814543478,0.00732597306253538,NaN,NaN,NaN,NaN,1.60696450398557,-93.5145725727472,1.69002574748466,stable,stable,1,0.446044013412491,0.183976421632994,0.121895479386287,0.960672344564149,0.353905386944433
67,1.63911764122344,2.51094388961792,-0.110005192196786,-1.61362341579615,1.63911764122344,-0.0535560948029891,-0.0376826339822492,0.0654846256337082,-0.00283827487362949,-0.141985360372726,0.142128284016285,0.009168833355486,0.161582598398545,0.163919938135685,15.4254650629896,1.04196794802536,0.76925358221786,0.176642386680607,0.240212844600877,0.143546254238962,0.389353131762192,0.15669887521014,0.0416993349168427,NaN,NaN,NaN,NaN,1.70472744872138,-93.0615211949791,1.5,stable,stable,1,0.469882025286722,0.20816642058827,0.209707191406018,0.897447780350643,0.336201664782684
68,1.58275480407315,2.17746376991272,-0.129402951367138,-1.56299138128215,1.58275480407315,-0.0492160857960813,-0.0154126936858916,0.0515729990183076,-0.00264997662985274,-0.129664817708085,0.129756086528611,0.00836888114121291,0.130653458846578,0.132745778924313,15.4594348950391,0.894781422321224,0.690242072172176,0.175566015102893,0.240189245627295,0.157927096886414,0.440907513120421,0.156737706981292,0.0406995666467342,NaN,NaN,NaN,NaN,1.6346567991892,-94.1375227104005,1.68257978846831,stable,stable,1,0.448617103537704,0.143264567133925,0.170419785800146,0.899763236420391,0.329810179161594
69,2.62673226157824,3,-0.392053356547495,-2.56343389427119,2.62673226157824,0.00605323999540331,0.00227490755130621,0.00646660025120931,-0.0167790034769311,-0.3417413339989,0.342708776101322,0.0221241312264648,0.19966364176431,0.202382947245934,15.4027969278948,1.76067085969425,1.87010321403262,0.0201980082625302,0.0568993777138624,0.124541486673078,0.434635236040611,0.000289199644309276,0.00794692752527385,NaN,NaN,NaN,NaN,2.97762147861884,-97.4745863886534,2.26389415930147,stable,stable,1,0.740938525870051,0.085170784524284,0.0541207957171913,0.961373485289452,0.344648228145298
70,1.69007003307343,2.44832825660706,-0.0824650464782294,-1.6777830294782,1.69007003307343,-0.0366510403666071,-0.00289044468367566,0.0367648395947005,-0.00142043315771181,-0.147900761974055,0.147935617246187,0.00954245404666861,0.101594338229437,0.104139554741631,15.4427037261208,1.04695000448347,0.69458080382081,0.176051336826157,0.240230890680826,0.148365799176283,0.426551578531479,0.159510063241323,0.0368141997963192,NaN,NaN,NaN,NaN,1.74106956136438,-91.9626622500687,2.1133015866187,stable,stable,1,0.47151325310124,0.177348320887429,0.190689335717161,0.898290875235959,0.334059644810541
71,1.6043461561203,2.52565479278564,-0.208901920571803,-1.5685459631949,1.6043461561203,-0.0594304575754222,-0.0263160019221577,0.0649962402358095,-0.00594351206692471,-0.13426622347283,0.13458957327974,0.00868229304027022,0.160624194081317,0.162946557335055,15.3534921338184,1.08860410639647,0.855824539368121,0.176554752462503,0.240169361609282,0.155102564074871,0.450291391582007,0.159563208695748,0.0358348414827152,NaN,NaN,NaN,NaN,1.67774962146967,-95.9395937551425,1.93770449459153,stable,stable,1,0.460414953099091,0.219210420626268,0.215474085466575,0.896444970123455,0.331065527077835
72,2.61540396636146,3,-0.600074868997569,-2.51192391470768,2.61540396636146,0.00400528264718246,0.00299260342923977,0.00499979643270789,-0.0280590374454018,-0.328891452763166,0.331189270550541,0.0213784838112571,0.202210250763326,0.204811817410291,15.4158787164051,1.80052010606285,1.51644333566095,0.0230163340211107,0.0449008927564426,0.122016964299445,0.417017732576015,0.00506796884272139,0.00802224291093608,NaN,NaN,NaN,NaN,3,-102.28205700878,2.08219559039006,stable,stable,1,0.738403421178449,0.0874507369146671,0.0576400519859057,0.962429977375901,0.345770238089135
73,1.71074030543334,2.64358925819397,-0.156883292580535,-1.69279775626793,1.71074030543334,-0.0403333059260245,-0.0235574766196669,0.046708995617637,-0.00292427508881815,-0.151513937475431,0.151589020908533,0.00977917688072304,0.11811959958396,0.120528470984162,15.3642897256705,1.13939183438217,0.805272640073933,0.175719142730378,0.240212062941637,0.174108907629649,0.418570570354057,0.159610303805659,0.0361715908341259,NaN,NaN,NaN,NaN,1.730743683828,-94.7490683234343,1.72014739001752,stable,stable,1,0.480303108979056,0.218454330234376,0.215163816701004,0.896860922049799,0.322618263275712
74,2.60673888468407,3,-0.586748801814585,-2.50763161832304,2.60673888468407,-0.0191819726284532,0.0127042876518621,0.0230075422125003,-0.026860525820761,-0.337436259203005,0.339565567243829,0.0219127374261147,0.198294554578341,0.20025859983792,15.356123730159,1.44479598807482,1.29514411192536,0.0627665330614097,0.240443090021523,0.10629501281098,0.455819253244921,0.00194825567627801,0.00799294319715654,NaN,NaN,NaN,NaN,3,-101.440236798872,2.25320195341329,unstable,unstable,0,0.735182089216668,0.0927018003517103,0.0593934964216713,0.947088632683579,0.352757772084009
75,1.67408460094815,2.50828123092651,-0.165770845356626,-1.65353038106332,1.67408460094815,-0.0438726347531129,-0.0382547279794939,0.0582085242294041,-0.00342307006658925,-0.144138862610217,0.144241211573249,0.00930440846572054,0.107315756479853,0.109742923974387,15.4251577940108,1.08668657338047,0.71907728074691,0.176874190446676,0.240188131306064,0.164490457749387,0.3598335810667,0.159521381795247,0.0356041982628704,NaN,NaN,NaN,NaN,1.72844746755899,-95.0560971705178,1.59873769214091,stable,stable,1,0.468371145047718,0.198365804520522,0.20286485580781,0.897374760208518,0.326893129889161
76,1.75366677482923,2.44133973121643,-0.218294327435864,-1.72817823915716,1.75366677482923,0.00356466892138246,0.00569564247922927,0.00671916719320713,-0.00473494558853382,-0.156864692047504,0.157025964940633,0.0101309181436161,0.12944740570717,0.130700036936628,15.3928244188637,1.34910601648108,1.20652680478453,0.0313688368358178,0.0645181148283218,0.0912869759279663,0.445460546349866,0.016874738060969,0.00513891486340464,NaN,NaN,NaN,NaN,1.80133462105751,-96.2777836497926,1.74931127711406,stable,stable,1,0.49378448067512,0.155958262505875,0.102943537400143,0.964235609415004,0.359428010698682
77,1.69454445307319,2.41851592063904,-0.146073533981476,-1.67229128729154,1.69454445307319,-0.0538416084021731,-0.0191033639865123,0.0571301786355875,-0.00344728825887865,-0.148591851637707,0.148714614310495,0.00959219368040372,0.130924017663991,0.133357521575708,15.4263345466985,0.939789893621565,0.650594632970283,0.175767352526206,0.240221660311249,0.141004524726441,0.344482878345375,0.156776481142083,0.0425215127327675,NaN,NaN,NaN,NaN,1.75923009576763,-93.8331549635916,1.96738539084391,stable,stable,1,0.47855002513466,0.173367446285506,0.189161272100913,0.899620445313675,0.337331322343804
78,1.78625374549144,2.41237330436707,-0.203007446197185,-1.76227218681808,1.78625374549144,-0.0466070489542882,-0.00182025504121656,0.0466425807673899,-0.00427126923442647,-0.163142428939375,0.163283758111465,0.0105321041042151,0.118979906824922,0.121762351016457,15.4480553835835,0.945886168976856,0.747309890860088,0.176029855432941,0.240238761516358,0.163279654674055,0.381493878301011,0.156716647864727,0.0409363251585914,NaN,NaN,NaN,NaN,1.84421771642335,-95.6415120879709,1.88225418009277,stable,stable,1,0.500686802334342,0.14942804055437,0.174194604249363,0.898681388956239,0.327431264589309
79,2.62825212836266,3,-0.407379291977109,-2.56451389403631,2.62825212836266,0.00590900640919528,0.00745907619755331,0.00951599571588896,-0.0171122584828931,-0.341843430720486,0.342829729532022,0.0221402393277507,0.193419152916349,0.196172840816571,15.3606415182881,2.12987307477327,1.86822997154973,0.0289706917786224,0.0697806156256477,0.129281897182068,0.463004528974771,0.00312646840440927,0.00859875416381965,NaN,NaN,NaN,NaN,3,-97.5958361626102,1.92901808219628,stable,stable,1,0.740101802393356,0.0853878703329822,0.0557490834087945,0.954100987318151,0.342541379030192
80,1.78298170631435,2.74063324928284,-0.237431868945731,-1.7502753159336,1.78298170631435,-0.0485301148772772,-0.0155544004464929,0.0509618624390002,-0.00629117288174996,-0.162700159221923,0.162987971535689,0.0105134758550933,0.132392554411132,0.135224905895255,15.4428727947956,0.975612418222583,0.774308864587269,0.177245436144053,0.240260867092765,0.156412109497807,0.363362548420339,0.159495922326672,0.0347868125060188,NaN,NaN,NaN,NaN,1.84269174465958,-96.4089816842801,2.17202831999383,stable,stable,1,0.502506769529543,0.224814605281727,0.218425589760857,0.897627900420182,0.330483506889864
81,1.84110135323293,2.4264132976532,-0.218914660897232,-1.81758434503926,1.84110135323293,-0.0463095867506401,-0.0199818752927311,0.0504366252363233,-0.00460166384359231,-0.174562780729657,0.174699931366746,0.0112680342711364,0.130573811681638,0.133449504150693,15.4490374910337,0.859934598438321,0.749451293157005,0.175788293823593,0.240222947191493,0.12919362677425,0.437855609542999,0.156702403919181,0.042168670418713,NaN,NaN,NaN,NaN,1.90149022471625,-95.3637271300002,2.27662287277763,stable,stable,1,0.517650261692252,0.140941902121221,0.169544716096143,0.899460678225669,0.342580610322556
82,2.59898020625114,3,-0.403868830192616,-2.53505673949167,2.59898020625114,0.00517464003065565,0.00598927149933275,0.00791506617404956,-0.0168698476572383,-0.334818560480963,0.335767428420423,0.0216698701921383,0.198056212302583,0.200752317474045,15.4238968533832,1.60791262679564,1.45533869185196,0.0305752902604053,0.0538747355234249,0.108996253070289,0.403833899217023,0.0146944437734172,0.00517607482626441,NaN,NaN,NaN,NaN,2.91783086718893,-97.7855854258006,1.76597372083018,stable,stable,1,0.733211851828448,0.091680549058735,0.06342140236227,0.960643951651852,0.351557220857649
83,1.7099922629627,2.32845187187195,-0.304528891920639,-1.66414780955664,1.7099922629627,-0.0555029320400976,-0.0154804641966049,0.057621352264504,-0.00826438732386694,-0.14645491290378,0.146942636607976,0.00947791783027974,0.141242660730263,0.143623825207337,15.4565105726548,1.00542859016111,0.686653329084935,0.17584108779861,0.240221390244176,0.142401314653726,0.380869388186013,0.156732421771458,0.0420767733088203,NaN,NaN,NaN,NaN,1.75027764965131,-99.5200046041142,2.44314195681039,stable,stable,1,0.484722701831521,0.149717326586406,0.174789894912063,0.89878452673519,0.336710526820566
84,2.66109801894926,3,-0.465643435230976,-2.58181687833127,2.66109801894926,-0.0297514804188502,-0.00645060307543864,0.0304427473653428,-0.0176518903959711,-0.34263081910054,0.343700573307965,0.0221761656703348,0.202481470188372,0.204610316030044,15.4380561195444,1.47165028594905,1.03021132569138,0.0623803067975431,0.240192819152316,0.100971669573105,0.397349647392363,0.00185307505946216,0.00833426674900619,NaN,NaN,NaN,NaN,2.95681470906161,-98.270421652992,1.50653054772402,unstable,unstable,0,0.750548201592477,0.0818341160867305,0.0529547010215389,0.949152362509768,0.355123702411953
85,2.04190918377468,2.71919369697571,-0.446529750216983,-1.97867156062917,2.04190918377468,-0.0497096143739285,-0.0125666501820845,0.0512734478848805,-0.0135763100011889,-0.205764643134935,0.206525769309371,0.0133217995768534,0.139353480399454,0.142767246348747,15.4460039308831,1.05492285100869,0.734588784788643,0.176791551233952,0.240285981114105,0.122986378407934,0.425710879131213,0.159653681785257,0.0372141829343383,NaN,NaN,NaN,NaN,2.10680641889481,-101.731697741666,1.91192657851461,stable,stable,1,0.573062564942996,0.16178914758246,0.181563110611976,0.897543775816045,0.345339387374252
86,1.98020576278369,2.8163206577301,-0.551542304473643,-1.88794291686898,1.98020576278369,0.00298699980154982,0.00584659882451549,0.00656543110764896,-0.0188355977493079,-0.186321720193424,0.187826202910974,0.0121221775348798,0.132460114465691,0.133900938886197,15.4154882290352,1.64272908421661,1.51933304224656,0.0302500017410631,0.0469231214347263,0.11605229983248,0.464011012685192,0.0105423487045262,0.00384146509791805,NaN,NaN,NaN,NaN,2.01104491577433,-105.279667622794,1.83334971524809,stable,stable,1,0.554835057852889,0.189329513732679,0.119680092951973,0.960030225278686,0.348421200074453
87,2.02331232619123,2.84117388725281,-1.16708720332557,-1.62750403027009,2.02331232619123,-0.0641896992959242,0.00464383754957827,0.0643574605068289,-0.0759923672058734,-0.141707403502994,0.165774468144419,0.0106961236165141,0.163212103296505,0.165918539418703,15.3764398114233,1.14803651741825,1.17181260366807,0.177252981583486,0.240276437397864,0.158980001187553,0.467159458440736,0.159551906065764,0.0361273087095148,NaN,NaN,NaN,NaN,2.06469467336038,-124.238920485483,1.83741249404432,stable,stable,1,0.572733661534736,0.195817718998439,0.20153979281761,0.893146123256864,0.329342221694421
88,1.94875007259602,2.59653186798096,-1.08981083943748,-1.60039875002419,1.94875007259602,-0.0475613524448542,0.00946268048790542,0.0484935518228952,-0.0645589690709433,-0.135258966984288,0.152609837730746,0.00984433424126532,0.124113316716263,0.126581199190068,15.4416207788742,0.982539039528448,1.02494667246392,0.176476156024154,0.240262114137666,0.190007514707475,0.473189597620296,0.15958157304088,0.035766386770198,NaN,NaN,NaN,NaN,2.00959748573364,-123.70580417537,2.23108707847221,stable,stable,1,0.54498292586362,0.154641388462474,0.176715935476735,0.895988819965126,0.315552215685567
89,2.62626573721568,3,-0.236439743612239,-2.58476256734078,2.62626573721568,0.00736872233259049,0.00469038606831965,0.00873486063338763,-0.0089675610562101,-0.347541626694145,0.347930077241527,0.0224617744399364,0.197811423207389,0.200583180513695,15.3390571836321,1.684408070909,1.6881712067476,0.0305532425286284,0.0738200059814878,0.115081322906596,0.507023478826898,0.0132223470154442,0.0062448323736762,NaN,NaN,NaN,NaN,3,-94.0907171926139,1.79285034794267,stable,stable,1,0.74045416602692,0.0856916002425935,0.0595624069549691,0.958224541554098,0.348852745374846
90,1.92162086190404,2.69302320480347,-1.03584490163737,-1.60478610048771,1.92162086190404,-0.044208882537408,0.000105137423666622,0.0442090075559743,-0.0586469201969942,-0.136371234969387,0.15073681031253,0.00972180810020424,0.132177834581057,0.134682511578506,15.4587774302612,0.838713555645948,0.869010722268133,0.176093726101487,0.2402353984181,0.131956150314033,0.367885114142045,0.156830038111879,0.0416569690312637,NaN,NaN,NaN,NaN,1.99637079272466,-122.311062912018,1.87633059586198,stable,stable,1,0.539368732156779,0.181670511870966,0.193852535022056,0.898535303337074,0.341352822082652
91,1.86417133954107,2.54286932945251,-1.11289997580904,-1.4825111128597,1.86417133954107,-0.036247653541646,0.00897930453910313,0.037343276466871,-0.0665182113223447,-0.116910055252086,0.136970850408112,0.00883599897069337,0.125496891869524,0.127721446443623,15.3859657874436,1.04584542465923,1.06808112424887,0.176774093042727,0.240238673261121,0.164031017033378,0.516637647357355,0.159372524882301,0.0353387682321375,NaN,NaN,NaN,NaN,1.94546366280019,-126.251978914843,1.80696450130242,stable,stable,1,0.522656646499675,0.159553315082336,0.179414683505747,0.895003530594358,0.327097325762943
92,2.60253339687983,3,-0.463138198413712,-2.52921634578897,2.60253339687983,0.00589306997970801,0.00322598298409151,0.00671827656466923,-0.0198236696869117,-0.334305233084908,0.335532943681515,0.0216584010246059,0.197991034116945,0.200556988798015,15.408880666586,1.74243659387025,1.50221305815692,0.0265545153788534,0.0506487726984153,0.116711077847037,0.442976548957665,0.0010441786392855,0.00456028681939861,NaN,NaN,NaN,NaN,3,-99.2513675644137,2.00846377310296,stable,stable,1,0.734120303594225,0.0906616697388939,0.0565193673547193,0.961229066473217,0.348128409845761
93,1.70591717269145,2.36355996131897,-1.03832075177233,-1.33397248530307,1.70591717269145,-0.0488554538024021,0.0066710806101025,0.0493088093827576,-0.0593763611785857,-0.0951103788621693,0.115579258078176,0.00745637827232079,0.132264652682298,0.134140099573554,15.4314827504599,0.984864684221572,1.09165037949772,0.176348989697572,0.240205862396559,0.173520200037623,0.406991881468392,0.159436633206212,0.0374326341991495,NaN,NaN,NaN,NaN,1.74681180591764,-126.657123786368,1.5772188349873,stable,stable,1,0.481739265965764,0.157009575828031,0.178678338347755,0.895510029650562,0.32287991109439
94,2.67049098452029,3,-0.261154627020728,-2.62670464005145,2.67049098452029,-0.0232317184486163,-0.01410919794403,0.0271805483517092,-0.00909504337359763,-0.352506238637294,0.35291358764784,0.0227763179523327,0.198278476432477,0.200466294764179,15.4261589961153,1.58346616477869,1.20939382951166,0.0629683854060017,0.240307264448297,0.1162106423471,0.427103273952151,0.00185426136883529,0.00665371073766096,NaN,NaN,NaN,NaN,3,-94.2734617915732,1.78794726531895,unstable,unstable,0,0.752224188158248,0.0791226290140805,0.0507172247497063,0.946571907341861,0.348350825623511
95,1.79819299320917,2.57750535011292,-1.13289331282419,-1.38019367243517,1.79819299320917,-0.0383411393639896,0.0137422011951761,0.040729486387844,-0.0688143099050948,-0.101369280982916,0.125626967694978,0.00810168122262589,0.122661430344976,0.124723012344908,15.4681973334015,0.606023428096445,0.90887865145196,0.175741995038353,0.240233345027838,0.133026176663271,0.390756390802735,0.156773227425969,0.0405517649663739,NaN,NaN,NaN,NaN,1.86493072097439,-128.583435678336,2.29545893013191,stable,stable,1,0.504462733991426,0.182812352807781,0.194110498003175,0.900226200427229,0.340877254816324
96,1.72832170049349,2.50132489204407,-1.06772350563058,-1.33743271701285,1.72832170049349,0.00485716303657666,-0.00130440906760936,0.00502926592849772,-0.0628742617502337,-0.0946789534719923,0.117521896624638,0.00758966845647575,0.137619814461093,0.138568158189887,15.358219057188,1.97628516799572,2.07220184203456,0.0209432241455127,0.0699770521561242,0.138731582748457,0.523821918250716,0.000232115305963373,0.00495991476048278,NaN,NaN,NaN,NaN,1.76269102467469,-127.19753908103,2.20194718959635,stable,stable,1,0.488599418436243,0.17484775018577,0.106815417837116,0.957718847134149,0.338341518778464
97,1.76900026587402,2.55343627929688,-1.0941685391015,-1.3680319162329,1.76900026587402,-0.0557220462025537,0.00982514871439347,0.0565816222837369,-0.0661925864108167,-0.0997551642040134,0.123750109001231,0.00798195667610522,0.134703999861827,0.136718600506962,15.4304510175356,0.729542692846523,1.0095522842698,0.176330708892619,0.240216812611623,0.157230163098853,0.466002444808516,0.158357418964117,0.0363951016677129,NaN,NaN,NaN,NaN,1.81622668042125,-127.513201967813,1.85899777956954,stable,stable,1,0.499077124334464,0.186871400438828,0.195738497783083,0.898170327876348,0.330119927511621
98,1.84409296035767,2.5459418296814,-1.17325739883518,-1.39833816386679,1.84409296035767,-0.0723344566589521,0.0135913988647826,0.0736002699943922,-0.0765673238818873,-0.105528273666481,0.135200423665393,0.00871988455548629,0.151489812346835,0.153579076345306,15.4126366933857,0.856445429597248,0.903981511358043,0.174981369134535,0.240217643380623,0.16127935549504,0.434448215514379,0.154637475584661,0.0404422145558543,NaN,NaN,NaN,NaN,1.91962505408224,-128.853168090004,2.47558063948914,stable,stable,1,0.522473938031105,0.171409378430145,0.186279653823095,0.898677389468084,0.328320286446649
99,2.62924681067467,3,-0.155490302038385,-2.59178356448523,2.62924681067467,0.00578041450577922,0.00449850328073985,0.00732459716472176,-0.00558946918622672,-0.349039193077456,0.349322811431956,0.022553057664893,0.195734071528178,0.198562838819628,15.4008248402975,1.89891066458415,1.71383513684881,0.0330965025952258,0.0615235212580367,0.117198450222638,0.484830980084297,0.0261609886907869,0.00583140899131385,NaN,NaN,NaN,NaN,3,-92.2002194325483,1.50975878299918,stable,stable,1,0.740845050610503,0.0847623104117322,0.0646050046923113,0.955065888833985,0.34791179990105
100,1.63335411078265,2.58835077285767,-1.03070385027234,-1.23967131395621,1.63335411078265,-0.0627205937859324,0.00446562565296271,0.0628793662287744,-0.0615124661286885,-0.0853351811163262,0.110257492917284,0.00711253320652579,0.16801123189085,0.169889711972558,15.4460333531133,0.931348552501473,1.00386600834273,0.176436853358348,0.240218842529854,0.179499921064698,0.383704286919367,0.15952619981947,0.0373653995687755,NaN,NaN,NaN,NaN,1.68546986904653,-128.540481584722,1.87180659875749,stable,stable,1,0.469539038603218,0.226402132775487,0.220329230943399,0.89657631605705,0.320222257304579
101,1.65855425069121,2.3349335193634,-1.05755977675304,-1.26412034906652,1.65855425069121,-0.0382576672150521,-0.00255861248140976,0.0383431297440324,-0.0604706061340768,-0.0849496849773004,0.106680468125466,0.00688163325358227,0.116846886356826,0.118715693113951,15.4464198052841,0.842081137401243,0.991334742534962,0.176855878174016,0.240193784344523,0.17421961317279,0.455128171843814,0.159484028187314,0.034847180190857,NaN,NaN,NaN,NaN,1.69807149429304,-129.55767099295,1.83993079665914,stable,stable,1,0.466024272140447,0.159214909237649,0.179082437735646,0.897166650427779,0.322569060812093
102,2.62396503925323,3,-0.149342226346577,-2.58856307174561,2.62396503925323,0.00791728363448157,0.00772484047957671,0.0110614890762382,-0.00536924467854277,-0.348639958534285,0.348894890987192,0.0225136319365645,0.200445559956671,0.203342197876138,15.4278284485527,1.49560536125355,1.37810835241962,0.030725035275208,0.0560368920938661,0.102327626716239,0.479148472412676,0.0175335046756027,0.00582827695377683,NaN,NaN,NaN,NaN,3,-91.8482151525671,1.74942590451668,stable,stable,1,0.740392450042757,0.0866358058319991,0.0618935256816488,0.962058303183535,0.354521054792783
103,1.71400261168577,2.45984172821045,-1.07875649898797,-1.31009937830424,1.71400261168577,-0.0595805647401899,0.00766339512803702,0.0600713851983487,-0.0642534036792963,-0.0924720097835594,0.116577246974463,0.00751805932583472,0.145277627080854,0.147217521924622,15.4730479959915,0.723602514111904,0.794280866121707,0.176361357307651,0.240227413777378,0.136953013307108,0.37037328922719,0.159492700743568,0.036297614806692,NaN,NaN,NaN,NaN,1.75398132014352,-128.600052606655,1.70830466070908,stable,stable,1,0.48651086750113,0.178826888504416,0.191380910534548,0.899893094787196,0.33913199408573
104,2.67760334553824,3,-0.377214951715617,-2.61120251032425,2.67760334553824,-0.0341954566690795,-0.00723307981762187,0.0349520628926961,-0.0135876788083614,-0.350030177434026,0.350762563907915,0.0226386359678981,0.2002020509899,0.202346099255287,15.4069250119723,1.57450750175847,1.37426101444554,0.0634128894557999,0.240334937850637,0.112912599401919,0.447624894538328,0.00189223026323492,0.0117556957856607,NaN,NaN,NaN,NaN,3,-96.2939600424606,1.73321220378984,unstable,unstable,0,0.754496778661255,0.0789471254508902,0.0524840649661515,0.94512465978764,0.349816622488036
105,1.69979021743852,2.5073549747467,-1.08707749385379,-1.28514365988319,1.69979021743852,-0.0508383052160627,0.0106220164876519,0.0519361195268331,-0.0650520887330894,-0.0892368405822838,0.114460951979949,0.00738161252829828,0.136941560621377,0.138797788732405,15.4578686713129,0.772217890021215,0.759776748965243,0.176660992859847,0.240191062524482,0.122769226876721,0.451173932691254,0.159526750429386,0.036505632426481,NaN,NaN,NaN,NaN,1.78074250763471,-129.221424924807,1.78165859982121,stable,stable,1,0.48103694906342,0.191223692307594,0.198909768780984,0.899632402835183,0.345435899165902
106,1.85446569164594,2.67476773262024,-1.08323871077519,-1.49135344360776,1.85446569164594,0.0045052148543693,0.00170096170232389,0.00481562369759124,-0.0631509857621884,-0.117053993980857,0.135511937137813,0.0087477075784296,0.125768397992052,0.126888191092007,15.3586925960923,1.75303405802106,1.69609816621291,0.026647211525878,0.0750761530655316,0.113665863334764,0.503028195081232,0.00140317743817177,0.00924758817342059,NaN,NaN,NaN,NaN,1.88415857146299,-124.959215831678,2.00737534056995,stable,stable,1,0.519901822657319,0.185450823563776,0.11525688789102,0.95957606961808,0.349481838517883
107,1.69121027722651,2.33900880813599,-1.01833911664898,-1.33635234304669,1.69121027722651,-0.0423199593028463,0.00377597643718252,0.0424880801337119,-0.0559721882218321,-0.0947616778731151,0.112456352569609,0.00725705429815886,0.119212140846998,0.121030928958125,15.3650576080934,1.15562981436437,1.22225363104275,0.176875754065049,0.240194466544554,0.166124209576229,0.489083941314836,0.159516011032523,0.037436766830328,NaN,NaN,NaN,NaN,1.72726488943798,-126.550224489005,2.09951687161051,stable,stable,1,0.475195593052027,0.15354415081248,0.176635865147315,0.892878753039276,0.32616701796612
108,1.65043798676964,2.49016380310059,-1.0045897857141,-1.27846617531349,1.65043798676964,-0.054590829683843,0.0222704059268158,0.0589587115337123,-0.0591342437315745,-0.0896705020626657,0.113069386100432,0.007292644614709,0.16614303869667,0.167974602331278,15.4562961438548,0.911213076663284,0.84757356136975,0.176784406088538,0.24023938725849,0.139860259529709,0.469169168404858,0.159468722462358,0.0369160157723482,NaN,NaN,NaN,NaN,1.72684939224008,-126.925173742408,1.52370146367122,stable,stable,1,0.47371171693816,0.199747405788976,0.204147436969833,0.897788759085472,0.337839884653463
109,2.63004342754682,3,-0.307074367353102,-2.5745876276536,2.63004342754682,0.00489639866354401,0.00393051955302448,0.00627882981367255,-0.0127870444264699,-0.344527121812191,0.345210750664279,0.0222912317299754,0.203275259771436,0.206091198498767,15.3531601296158,1.93088134674572,1.79304141925495,0.0260707136580911,0.068079866090702,0.12422292522526,0.50037435328955,0.000528404486268418,0.00594629109770541,NaN,NaN,NaN,NaN,3,-95.4171668207032,2.0228824506001,stable,stable,1,0.742563153712238,0.084391347601139,0.0530319426709178,0.957705250009521,0.344789811010996
110,1.61622383724265,2.28525471687317,-0.943078319731692,-1.29135728162094,1.61622383724265,-0.0480310270890125,0.00929955150645658,0.0489230132089867,-0.0493578203426614,-0.0904007888776051,0.106402717510198,0.00686262429614751,0.12950293690917,0.131107222634128,15.4618862943705,0.837073681990108,0.878413840682049,0.17648085679084,0.240200490820574,0.146800926341911,0.363374941962462,0.15954016472765,0.0375308721184114,NaN,NaN,NaN,NaN,1.65985778043302,-125.136897277648,1.67126578411508,stable,stable,1,0.457214467791531,0.159501167005182,0.180255029943305,0.898280741069299,0.33475514384804
111,1.55622175437253,2.09514093399048,-0.941855706251313,-1.2267436142841,1.55622175437253,-0.0384379525613259,0.0106905492964143,0.0398969176925462,-0.0481114620961109,-0.079322095078695,0.0946907158493492,0.00610871885953517,0.0915488048813773,0.0931197795288548,15.3965954146946,0.912105688413797,1.0860451576079,0.176534472486335,0.240177427522169,0.176943495680635,0.480119109837673,0.159587788626026,0.0372806589248029,NaN,NaN,NaN,NaN,1.59306398738573,-126.486183134521,2.31441557677813,stable,stable,1,0.433616423738444,0.12857125032434,0.161627259495998,0.896033007109519,0.321358446364162
112,2.63124221126239,3,-0.241927799164019,-2.58804848608515,2.63124221126239,0.00248568149417792,0.002273401032151,0.00336852560380411,-0.00971849764264118,-0.348023146165063,0.34845934393047,0.0225058898820239,0.194399299575007,0.1972046656249,15.3599356243057,2.22312935095262,1.89100237482259,0.032951589934235,0.068992128707036,0.139452265088504,0.473696417962329,0.0241909919617894,0.00487416938995946,NaN,NaN,NaN,NaN,3,-94.1056534981467,1.59951414942745,stable,stable,1,0.741105522794949,0.0835880654933274,0.0626768165117265,0.951198884330363,0.33802121551622
113,1.71907186751463,2.58382391929626,-1.0012739876526,-1.36781866115873,1.71907186751463,-0.0608809300598421,0.0111439927269865,0.0618924568816791,-0.0581204161752274,-0.103487443133209,0.123846582949167,0.00798808695552197,0.178315984493713,0.180192884589694,15.4441738309321,0.833967224307494,0.936401717895731,0.17637246649613,0.240254594256393,0.154393250313303,0.383156360160002,0.159538274348151,0.0375381495254947,NaN,NaN,NaN,NaN,1.77528590773906,-124.910768203071,1.51075613618428,stable,stable,1,0.494457741588507,0.205916162079176,0.208105833148884,0.897903725063195,0.331380777638532
114,2.6271245111272,3,-0.413253392605554,-2.56099395872393,2.6271245111272,-0.0187404984813064,0.00965230128366866,0.0210801613703159,-0.0181276228752581,-0.348650177021835,0.349738322731962,0.0225732353939833,0.201475534729931,0.203546722592814,15.4271746115769,1.65057564022905,1.29605262909362,0.0618286158321425,0.240310821909117,0.119845295047382,0.430364661375736,0.00191057618502327,0.00737257472520652,NaN,NaN,NaN,NaN,2.9979851142919,-97.9705526263991,2.19968652136316,unstable,unstable,0,0.74127588081915,0.0877616812476041,0.0561870899833954,0.945933612824965,0.346735424423386
115,1.83313989477093,2.6353714466095,-1.02656554620614,-1.498332798958,1.83313989477093,-0.0518809480130625,0.00546718569641996,0.0521682172033245,-0.0587691318008499,-0.119707275526156,0.136688644990266,0.00881979851220723,0.140884508342376,0.143045361267974,15.3509539189127,1.11977621101819,1.22477092850835,0.176316244202135,0.240223983382361,0.15060022307924,0.437202801796684,0.156851159555415,0.0397716853404611,NaN,NaN,NaN,NaN,1.89315516909655,-124.179562229341,2.29514218773877,stable,stable,1,0.517446377525842,0.190066272317621,0.198213820892541,0.893420436088367,0.333066567520338
116,1.67818624218305,2.34001517295837,-1.01615074569557,-1.32234840065768,1.67818624218305,0.00345733716118266,-0.00110425777626505,0.00362940290992008,-0.0553182745840196,-0.0919019144449253,0.1095039871773,0.00706741198617145,0.110534725237848,0.111419154938293,15.4240515482537,1.61497980125331,1.48383174532249,0.0298308860013612,0.0561390398226394,0.106260454484364,0.428224432318882,0.0112609836890174,0.00588913666381127,NaN,NaN,NaN,NaN,1.69700248239393,-126.66944677606,1.84818993205415,stable,stable,1,0.469800162236472,0.149576899957933,0.0968925258557092,0.96073675199051,0.352773131340283
117,1.64036811857807,2.22326445579529,-0.955121406432071,-1.32026235571955,1.64036811857807,-0.0390105436997714,0.0100374650276108,0.0402811770425379,-0.0496555780343363,-0.0923433340107376,0.106956252010058,0.00690095225805297,0.112059272969529,0.11371976937911,15.3691768419625,1.06201731876105,1.18200749174856,0.177152252833878,0.24018418065787,0.153104625874354,0.479996483386541,0.159568695123192,0.0367669527741286,NaN,NaN,NaN,NaN,1.6721231422542,-125.43586516234,2.15314152174814,stable,stable,1,0.460175452163308,0.138536558331672,0.167411156062529,0.893792250071914,0.331953499611398
118,1.70275424613434,2.53528261184692,-1.06023578754481,-1.3170875397456,1.70275424613434,-0.0389378472176275,0.0137754935668612,0.0413027864550799,-0.0609050798302087,-0.0921823100312654,0.11320789462771,0.00730213964932468,0.11236873132228,0.114192863496464,15.4407445984168,0.879294736519725,0.984232402995704,0.17626306070168,0.240213128035717,0.168537843304114,0.429568154674075,0.159460171917501,0.036890774057463,NaN,NaN,NaN,NaN,1.78141492798702,-127.597402747289,1.84485175270962,stable,stable,1,0.476906371668449,0.194891059802097,0.201220650330134,0.897226470695825,0.325094291864838
119,2.5761883799235,3,-0.360337906338384,-2.51944755116534,2.5761883799235,0.00679524918343708,0.00682220856900114,0.0096290155895582,-0.0146351197998995,-0.331190164840188,0.331941927934726,0.0214259043446157,0.201969697310919,0.204609012940886,15.3840847510166,1.78717251907042,1.37499706168229,0.0322345114120541,0.0527974538434523,0.113442503581132,0.395723553731065,0.0244185822418416,0.00558484361571432,NaN,NaN,NaN,NaN,2.88139783872518,-96.8469577847742,1.59777094698055,stable,stable,1,0.727905370567778,0.0971229340419643,0.0711573158676709,0.959037126159487,0.349581109519497
120,1.72653646533992,2.45597505569458,-1.01978905621427,-1.37842498894237,1.72653646533992,-0.034300159736244,0.00775244092244813,0.0351653422873701,-0.0567265150356121,-0.100817074607251,0.118256706554962,0.00762705448146383,0.119950207452879,0.121838477409127,15.4605824101443,0.826511100152185,0.893276582664847,0.176059724202065,0.240196325127848,0.151447968784066,0.390947854148397,0.159511106855029,0.0370591031127406,NaN,NaN,NaN,NaN,1.76744363452008,-125.864521808831,2.30298679670304,stable,stable,1,0.484777419572471,0.17057066224915,0.186712260113934,0.89845752039112,0.332689791651526
121,1.70694822072983,2.58295774459839,-0.992337858831427,-1.36146586803474,1.70694822072983,-0.0636967518275754,0.007771311378231,0.0641690694487706,-0.0570927801311026,-0.103216501485591,0.12293722872872,0.00793094831448498,0.173976726600365,0.175900222107892,15.4085907005223,1.01328572081502,1.034024813691,0.176724823563155,0.240268651273602,0.171511260259734,0.507858977245639,0.159546318356705,0.0383712370999325,NaN,NaN,NaN,NaN,1.76448514358837,-124.664357217421,1.62060613207263,stable,stable,1,0.490366236616199,0.208866472269367,0.210182535314071,0.895551576875875,0.323772773217896
122,2.62985864599546,3,-0.386627287276601,-2.57090452475465,2.62985864599546,0.0073373642985931,0.00315840265993503,0.00798826778548099,-0.0155255768186951,-0.343470579873911,0.344255475687221,0.0222312887298372,0.189531397298842,0.192340673251325,15.3343302662734,1.95822844192562,1.87151617225724,0.015929748133854,0.0687340800324039,0.121828249634505,0.499250968007602,0.000243044635686794,0.00572144506924468,NaN,NaN,NaN,NaN,3,-97.1526305433791,2.40706050646768,stable,stable,1,0.739763773582387,0.0847463204116935,0.0530363375648244,0.961944275393065,0.345854111273553
123,1.60126673618952,2.31682658195496,-0.918241830098324,-1.29646055486749,1.60126673618952,-0.0497702589764765,0.00525273871317792,0.0500466776377259,-0.0469793985512953,-0.0897197621167028,0.103674892170792,0.00668628639206179,0.137371776489629,0.139014998920306,15.4596474216975,0.883730156907559,0.709892641995426,0.174009073793756,0.240168696479831,0.138770978826924,0.318441601000909,0.15723497069339,0.0395380094333902,NaN,NaN,NaN,NaN,1.66518818535526,-124.488998271363,1.74822159457327,stable,stable,1,0.454807462767934,0.170176189530805,0.186365380891324,0.900474141111741,0.338324009410256
124,2.67819650304061,3,-0.529547021417828,-2.59201385294883,2.67819650304061,-0.0207612919735546,-0.0109297821720582,0.0234625527754297,-0.0240976071582001,-0.343830497677023,0.345596092360899,0.0223059343199494,0.201237081970703,0.203243797340934,15.4410001731236,1.72947345376694,1.28215481435705,0.0622019974169976,0.240462913131681,0.122419177188123,0.424635666127106,0.00185923794298918,0.00852762321192871,NaN,NaN,NaN,NaN,3,-100.530616564359,2.08297163686536,unstable,unstable,0,0.75483449361235,0.0767072548246906,0.049951634764723,0.945236207756241,0.345591476805279
125,1.54776860580963,2.30073142051697,-0.812974894920093,-1.2927658972563,1.54776860580963,-0.058551373109083,-0.00836801164066409,0.0591463178209543,-0.0392196903114463,-0.0916477592273496,0.102885189751456,0.00663574298942146,0.154716196473029,0.156278938021951,15.4444947002606,0.673723337110407,0.969390008445389,0.176715795992634,0.240202423642882,0.136447437898727,0.418918922661333,0.159468971374931,0.036437966127863,NaN,NaN,NaN,NaN,1.59718321662841,-120.692341177793,1.57380887881742,stable,stable,1,0.443994082486959,0.180260124909659,0.192281342835694,0.898731925717173,0.339356694267233
126,1.54363278687,2.27662754058838,-0.86102514768031,-1.26329305181461,1.54363278687,0.00447420341793997,-0.000399995128570562,0.0044920476765041,-0.0414194731387915,-0.0849979156965759,0.0970767462826807,0.00626625165426992,0.125230532040021,0.126017001928953,15.388375723507,1.63099600841148,1.64004578046103,0.0285566082858061,0.0714707771258148,0.114570647088631,0.466697265696576,0.00833024302561946,0.00607786144048425,NaN,NaN,NaN,NaN,1.57811714801433,-123.111297136965,1.86882620602402,stable,stable,1,0.436838810217791,0.16574736166066,0.105360878662908,0.960020653230241,0.349079712405053
127,1.46465964544387,2.31013822555542,-0.723778092571282,-1.24892284643271,1.46465964544387,-0.05731594678936,-0.00388689070168781,0.0574475906865346,-0.0313593339657796,-0.0864883429222096,0.0947348271905234,0.00610963866859092,0.151978708778062,0.153384609506415,15.4640064784912,0.744169825709956,0.79115304249117,0.17620453959675,0.24017622993722,0.142734057716238,0.407579720167645,0.159498752127172,0.0366028155353394,NaN,NaN,NaN,NaN,1.53181850141805,-119.504479623187,1.71890442827616,stable,stable,1,0.421252827352982,0.20076473881763,0.204657292309445,0.89983447909433,0.336562641015005
128,1.62245387771503,2.24359941482544,-0.864972589965787,-1.36138395415448,1.62245387771503,-0.0459982688594501,-0.00642843724007396,0.0464452962463997,-0.0409729270952984,-0.097993218190153,0.107744743956133,0.00694983933463851,0.108892273174324,0.110735437889349,15.4463151273488,0.876255029476447,0.909675789713045,0.17697457717836,0.240178973106878,0.152899693808393,0.386538524183647,0.159512609232223,0.0348506807629591,NaN,NaN,NaN,NaN,1.67347133841587,-121.814224359451,1.75560272536724,stable,stable,1,0.454801454968544,0.14827271682835,0.172531097912003,0.897480397831474,0.332044580529603
129,2.62369431853294,3,-0.519362236961018,-2.54059755214123,2.62369431853294,0.00469764978691622,0.00505988527798993,0.00690437198787357,-0.0226083636791717,-0.33642567710109,0.337947280117045,0.0218187762832262,0.191302767252594,0.193952745900152,15.4230617748849,1.85761439623432,1.92169504023804,0.0166255001443344,0.0589184202106714,0.129798669541405,0.487951701853067,0.00021110538448142,0.0044499044317208,NaN,NaN,NaN,NaN,2.98812679975473,-100.15154225882,2.36989700552354,stable,stable,1,0.738442367455482,0.0859345798611979,0.0532727195981241,0.961992675784122,0.342311702426042
130,1.62293475906865,2.16035389900208,-0.91307997151622,-1.32472492809218,1.62293475906865,-0.0484382294371721,0.00584295856780043,0.0487893660117977,-0.0459340106088199,-0.0934618393677177,0.10672245935159,0.00688471924906695,0.12054518836898,0.122223169468571,15.3844270144614,1.01762239435674,1.01777919863125,0.176693988023631,0.24017346802519,0.142937777939257,0.453241711292552,0.159466932120337,0.0365802678507872,NaN,NaN,NaN,NaN,1.67291748571223,-123.514973806059,1.83127593276952,stable,stable,1,0.457227236312021,0.129864023587183,0.162094521787898,0.895660564900422,0.336472098693663
131,1.48860667726478,2.3432080745697,-0.740378368068167,-1.26748449515197,1.48860667726478,-0.0548791002462511,0.00635665408269073,0.0552460197205651,-0.0330486770828129,-0.088003048460898,0.0967162055464303,0.00623820445545954,0.151719024275792,0.153305007837667,15.4096506913354,0.826934685241791,0.919437132641405,0.175859992308369,0.24017044921641,0.168366836637269,0.468866055823561,0.155829754188989,0.0437579014693577,NaN,NaN,NaN,NaN,1.54515709711904,-119.107877075441,2.13352214479154,stable,stable,1,0.427622782171475,0.202413751342378,0.206617883504541,0.898348510991019,0.325170294827881
132,2.61548523942629,3,-0.451756197488435,-2.54232162435979,2.61548523942629,0.00443994964321453,0.00523848726062089,0.00686694266860938,-0.0198170450170412,-0.337281861654561,0.338532322148943,0.0218536484625809,0.198967083862615,0.201571750151219,15.3315010633438,1.69011689867686,1.68868667285044,0.0288621806217175,0.0753488097712142,0.109503540419817,0.485080289296749,0.00907764736967416,0.0045641307559067,NaN,NaN,NaN,NaN,3,-98.8062245222683,1.88144224727816,stable,stable,1,0.737777080543922,0.0877747606183287,0.0583590502243134,0.959021167341427,0.351331759813415
133,1.64435416095111,2.21801257133484,-0.847437083447933,-1.39804090638986,1.64435416095111,-0.0381410957045386,0.00962516776444483,0.0393368406971948,-0.0393425862153198,-0.103263541236263,0.111928075649101,0.00722299998651481,0.104912092833309,0.106774301051071,15.3642014275175,1.19017959725191,1.13650375613428,0.177812749212197,0.240270419791275,0.163621899671764,0.443442762230322,0.159490274952608,0.0368364025094129,NaN,NaN,NaN,NaN,1.68330103474598,-120.509023497779,1.92245414615768,stable,stable,1,0.45984930313051,0.136284896464158,0.166050559982067,0.89281254190301,0.327279155701438
134,2.66501209483978,3,-0.638251018907313,-2.54929481131472,2.66501209483978,-0.0290894147569298,-0.0055495124389736,0.0296140361857517,-0.0277683215243407,-0.335003156429485,0.337373785222218,0.0217758312750191,0.202015513698371,0.204100143615988,15.3763663407169,1.71526323196637,1.26734486258109,0.0630010729835397,0.240508131413398,0.115524667192596,0.427734502815599,0.00188953038428712,0.00767298890409059,NaN,NaN,NaN,NaN,3,-102.269542710179,1.72457772190488,unstable,unstable,0,0.751489920680474,0.0808015186284362,0.0521108802422728,0.9450646856225,0.348655703469958
135,1.68092095207524,2.39303302764893,-0.876962129704067,-1.41409420787622,1.68092095207524,-0.0544641410546814,0.00266489936166246,0.0545292980830674,-0.0437922253263007,-0.106912227255603,0.118287637634411,0.00762849028639479,0.146026001030249,0.147912621123447,15.460549160401,0.831206061093732,0.713651045890725,0.175750746149309,0.2402195714528,0.130483655348493,0.422881209530528,0.15675056001463,0.0404681839024994,NaN,NaN,NaN,NaN,1.71044333906111,-120.370167332204,2.29397252970183,stable,stable,1,0.477828111444753,0.170222254985976,0.186515971790916,0.899986463941896,0.342007264289559
136,1.6275614664952,2.51459002494812,-0.756714311799754,-1.42881260535977,1.6275614664952,0.00404124625511154,0.00251939433708981,0.00476224937610508,-0.0317709595654032,-0.107391187080266,0.113236853347895,0.00731174391886301,0.11253290677185,0.113435557983554,15.4252247280654,2.02508920994139,1.78420256040736,0.0320467629464712,0.049531480531538,0.124667898540005,0.438204018800616,0.0211772455728201,0.00588594825520351,NaN,NaN,NaN,NaN,1.66149639163359,-116.91481150861,1.68891761642093,stable,stable,1,0.456703502662096,0.200454504704194,0.131825156786066,0.954046468902596,0.344592045093331
137,1.43620847479827,2.19935894012451,-0.695804976279594,-1.2330409628095,1.43620847479827,-0.0473866304167711,0.01914213125757,0.0511068873180288,-0.029591597816891,-0.0841140302993024,0.0915793833251107,0.00590599617804641,0.160863965929678,0.162317718123209,15.4727964473523,0.741016660818996,0.676974704813597,0.176014817424976,0.24018416510039,0.128284443558825,0.380377645125344,0.159485472207924,0.0340596484875923,NaN,NaN,NaN,NaN,1.50463962214456,-118.009747287404,1.57998855194834,stable,stable,1,0.415452470237513,0.18107845070671,0.191914829239198,0.900851230557542,0.342984691751634
138,1.59354932494715,2.38088011741638,-0.723837098307986,-1.39239581791348,1.59354932494715,-0.0554512375817404,0.00395250961481013,0.0555919246078222,-0.0322485035112241,-0.106388061514495,0.113951406826771,0.00735302900787258,0.166832553960072,0.168550115580018,15.372853203205,1.11563769164456,1.19178871908678,0.177200522991152,0.24267594114313,0.161494573826903,0.511734732391443,0.156652762026767,0.0417520993867652,NaN,NaN,NaN,NaN,1.62198882751374,-116.427624599585,1.55020042345839,stable,stable,1,0.458656509768577,0.187341281150345,0.197210800075069,0.893269959562963,0.32822463385471
139,2.63969832062721,3,-0.524514228487585,-2.5544147868354,2.63969832062721,0.00582431895294642,0.00636466954230146,0.00862738138999028,-0.0232727427821543,-0.338644972455908,0.340279207150012,0.0219722577465935,0.190306938090224,0.193047075600413,15.3315242262839,1.9475085507992,1.68461830737139,0.0222541467295612,0.073481391524128,0.117386808094245,0.488633937076857,0.000180340371104929,0.0100227880482867,NaN,NaN,NaN,NaN,3,-100.33835635475,2.17367805773503,stable,stable,1,0.742528967287339,0.0826495644470421,0.0533145401436489,0.960334787035308,0.347828085291447
140,1.5786402918197,2.22808742523193,-0.741268774804464,-1.3828934653099,1.5786402918197,-0.035756133410632,0.00664924775877988,0.0363691293851881,-0.030128877450075,-0.101224354222443,0.106688946128916,0.00688048656723482,0.100918160585726,0.102648149135636,15.4650913398318,0.796368118440552,0.689172373463625,0.175953103807355,0.240167609185857,0.142489076051932,0.354965569924611,0.156692104666861,0.0409498357718851,NaN,NaN,NaN,NaN,1.62484937329115,-117.662804067615,2.02428878839244,stable,stable,1,0.441500374312381,0.15279327873837,0.17620775202211,0.900351344231361,0.336671521754697
141,1.53118739687667,2.29979872703552,-0.765438568375938,-1.30292040087971,1.53118739687667,-0.0538773586740097,0.00416014766028468,0.0540377331708433,-0.0353514554265744,-0.0932601044926716,0.10247138207085,0.0066122560484968,0.159751242045293,0.161415896680772,15.3677718485216,0.948303030684774,1.20025659526073,0.177493891974343,0.240196780775376,0.173025932485455,0.497332579120452,0.159496283432523,0.0365420602358984,NaN,NaN,NaN,NaN,1.58700801541868,-119.377240163094,1.87154759386352,stable,stable,1,0.440599818503265,0.182844467033731,0.193881939205323,0.894371514094685,0.32309958556202
142,2.61970150589943,3,-0.620749358685951,-2.51372258154317,2.61970150589943,0.00515158518461634,0.00494474375234699,0.00714068068819305,-0.0288017497887818,-0.329343872417545,0.331730992010235,0.0214134252813069,0.194525797908421,0.197137854202397,15.4039657226879,1.77082921774726,1.68036657685861,0.0211356436416245,0.0578138752771377,0.117574129086461,0.482701750057384,0.00078665233147553,0.00611848922344039,NaN,NaN,NaN,NaN,3,-102.460692774955,2.18842958493603,stable,stable,1,0.738014639080327,0.0868762859654637,0.054700300009872,0.962315639792999,0.347744831517129
143,1.46621662579678,2.13489437103271,-0.646206554286695,-1.30519661708584,1.46621662579678,-0.0384978180929982,-0.0162631908027473,0.0417920252321917,-0.0240167240657687,-0.0906470789743447,0.0946810794391307,0.00610628041656851,0.100692155854563,0.102266702655386,15.4620949341589,0.743632061301308,0.74774188479107,0.176371990407982,0.240140510777657,0.134500519798184,0.381535119378575,0.156801516236533,0.0394650956284935,NaN,NaN,NaN,NaN,1.50542716708844,-115.316950545559,1.76823266927229,stable,stable,1,0.411444440743552,0.158114363970653,0.178909125019091,0.90009606664814,0.340221991200807
144,2.67791672826679,3,-0.562697288019642,-2.58490307004869,2.67791672826679,-0.0263397639857574,-0.0111746231851311,0.0286121542382791,-0.0238048070470066,-0.341575651608434,0.343272032883168,0.0221601445353366,0.200684018053628,0.202781345471544,15.3431174158637,1.62192676857912,1.49618468893372,0.0620059804819699,0.24024226357823,0.118883022941907,0.476330838169021,0.0018529408351766,0.00850339969786277,NaN,NaN,NaN,NaN,3,-100.955060334027,1.93494163583466,unstable,unstable,0,0.75466739663212,0.0777142977503229,0.0505442532549496,0.944497562592843,0.347163100914708
145,1.60306305544717,2.33738708496094,-0.733327000105189,-1.40891639271678,1.60306305544717,-0.0449440307402195,0.00751924923707597,0.0455686845132385,-0.030962655647785,-0.106502512163728,0.112631739261732,0.00726440900462013,0.135543638110985,0.137245995878872,15.4610965158299,0.860358951993236,0.84095199801131,0.176321617565805,0.240215282735481,0.168354998657902,0.44592734470457,0.159613984894036,0.0351882079610388,NaN,NaN,NaN,NaN,1.68254359450145,-116.590495520199,2.03116111544154,stable,stable,1,0.454932680628353,0.173577165468025,0.187881560108441,0.89847174803849,0.325175556152044
146,1.72893851061662,2.54349446296692,-0.819658186407533,-1.50409946798058,1.72893851061662,0.00425885458680382,0.000389832248717293,0.00427665892650792,-0.0381916594845716,-0.120324875313616,0.128361578271366,0.00828757775411289,0.144060563122418,0.145084819959592,15.4008194724685,1.78521216485385,1.84056875217555,0.0285657289190397,0.0561837805482289,0.120539370941717,0.482702027856696,0.00773439745281511,0.00445618664123912,NaN,NaN,NaN,NaN,1.779143412243,-117.297381887505,1.90565465567361,stable,stable,1,0.490067233489684,0.184059143415344,0.11549342753414,0.957228856906678,0.346426946248126
147,1.46470065789969,2.238436460495,-0.718171186429566,-1.26091989505872,1.46470065789969,-0.0365605187711805,0.00576649337944791,0.0370124840927093,-0.0295344249024883,-0.0852152222405896,0.0918744116520357,0.00592671649377192,0.128627446613531,0.130152144174205,15.4248233564644,0.930979624138301,0.959472236353838,0.176820564780175,0.240180588370083,0.161828802311255,0.431429165282948,0.160298481060839,0.0334090977290618,NaN,NaN,NaN,NaN,1.48754464037965,-118.732441752547,2.22643312957589,stable,stable,1,0.416617270941424,0.180876177667607,0.191918238771505,0.896736167277474,0.328076087861665
148,1.72654900630315,2.66342306137085,-0.79092607274339,-1.5053022418668,1.72654900630315,-0.0818608613767591,-0.00299900495692214,0.081915777821349,-0.0394402666618174,-0.122290100323602,0.131779465199031,0.00849847340171937,0.158415109685094,0.160571363279237,15.477932624302,0.641010084575849,0.768215462155664,0.175134120116531,0.240228253660948,0.129778495722139,0.393425690594866,0.157265007457564,0.0416915543696108,NaN,NaN,NaN,NaN,1.75445964810256,-115.915142708198,1.83134587802176,stable,stable,1,0.492527341003354,0.225814554990813,0.220544857089829,0.90136045350313,0.342320668567938
149,2.58468753695488,3,-0.617224491214886,-2.47823860225634,2.58468753695488,0.00663443127894059,0.00313741449309569,0.00733887239952243,-0.0286592694738829,-0.320581720142158,0.323036437711393,0.0208520933160087,0.200610240710273,0.203165569720122,15.4387640035435,1.81240896705362,1.64034217883241,0.0320335851347951,0.0522607828069595,0.114911001905631,0.447393775888577,0.0259849533101279,0.00664587439841467,NaN,NaN,NaN,NaN,2.89228411426449,-102.374592577792,1.57547477667259,stable,stable,1,0.729883123798659,0.0947907641250645,0.0708400082122968,0.956854448429212,0.348928443597497
150,1.51817739658615,2.26382327079773,-0.64795704039348,-1.35679436563694,1.51817739658615,-0.0460907814722896,0.000740388305118974,0.0460967277750678,-0.0246028885150456,-0.0986872014005424,0.103007105476486,0.00664365645041366,0.128952442868836,0.1306083722613,15.4597430532452,0.787232055930293,0.849225824340157,0.176649938106369,0.240176615528954,0.151698915670256,0.39016256296573,0.159384840443561,0.037629795645645,NaN,NaN,NaN,NaN,1.57055207434036,-114.528428258895,2.4180778547914,stable,stable,1,0.430968980208567,0.176221388456367,0.190254101990587,0.898817147601833,0.332578259702108
151,1.48269341080575,2.26763439178467,-0.669358283235703,-1.30171431397229,1.48269341080575,-0.0589092954121857,-0.000377960728216025,0.0589105078935179,-0.0273784984535198,-0.0925500378663522,0.0985564822516624,0.00635725690367265,0.143854963743059,0.145289994669693,15.4090505870195,0.96816485650587,0.909604583500089,0.176382301492684,0.240182517160847,0.140031709543169,0.469274677976825,0.15672156812281,0.0398959045914447,NaN,NaN,NaN,NaN,1.53043490962982,-115.371127707452,1.7415125615302,stable,stable,1,0.42444290848214,0.187411980500734,0.196608820246861,0.897054946510754,0.33776368464748
152,2.62941087524096,3,-0.654221977766898,-2.51405063501305,2.62941087524096,0.00679512656194229,0.00452127220777816,0.00816184093018486,-0.0312906924101818,-0.328732785546973,0.33150477331494,0.0214078961528182,0.196749544849642,0.199371636161454,15.3729844959904,2.00969638019881,1.94410470608556,0.0238450342174693,0.0668696944464936,0.127072391389759,0.491601611535273,0.000262709164248388,0.0106849637154366,NaN,NaN,NaN,NaN,3,-103.235441300153,2.11097581125519,stable,stable,1,0.741050560629881,0.0848788905746509,0.0549295353244132,0.957011902927602,0.343523381604552
153,1.48364972622216,2.02629971504211,-0.690232009585747,-1.30253545099965,1.48364972622216,-0.028770832794056,0.0109318854315699,0.0307777019732224,-0.0263691245438113,-0.0897599725110364,0.0945602906375779,0.00609874916113079,0.105973045097051,0.107501790520023,15.4524632280623,0.734227062220042,0.834191564731158,0.176103806118739,0.240131015075953,0.143272758313442,0.411363629376798,0.159601018929556,0.0363776134881173,NaN,NaN,NaN,NaN,1.53053947457772,-117.277382087191,1.53749622966169,stable,stable,1,0.417140285096581,0.12773882617958,0.16080530498525,0.899624807728871,0.336323218527359
154,2.6758059210637,3,-0.675835122204231,-2.55164176473756,2.6758059210637,-0.0303982089355171,-0.00527736265798656,0.0308529036414932,-0.0300795672700811,-0.334615612856704,0.337352058160672,0.0217681312040512,0.198078177252566,0.200105780276528,15.4460270270977,1.42352445428366,1.22806100030156,0.0635378071996229,0.240264844694588,0.106099575560703,0.434759172236774,0.00189038725072574,0.00830833788210237,NaN,NaN,NaN,NaN,3,-102.931426400997,1.55272381723735,unstable,unstable,0,0.753569401672293,0.0786000334282738,0.0510214059437079,0.94739721068559,0.352844633084132
155,1.61302383203764,2.49048519134521,-0.763785192359712,-1.3944919778777,1.61302383203764,-0.0618803976835729,0.00569564351022919,0.0621419662745938,-0.0352166313115,-0.107315011226033,0.115999852828011,0.00748109329698349,0.165611185378517,0.167271980042875,15.457776902682,0.743319194296668,0.826891245060197,0.176333569839027,0.240211171490276,0.139232414239464,0.420818352063699,0.156727935561625,0.0381004597692826,NaN,NaN,NaN,NaN,1.68981233095603,-117.495671617653,1.9383662344476,stable,stable,1,0.463594084551946,0.208821499661213,0.208804472689714,0.899495847342683,0.338118927004682
156,1.60620374997457,2.43497514724731,-0.713682252070001,-1.41487887556511,1.60620374997457,0.00488765024693927,0.00501743378561055,0.00700455328549877,-0.0313992115149177,-0.108441037698118,0.115242518910483,0.00744023168596178,0.166025756255866,0.16688309405868,15.417267515544,1.74194980316109,1.81573850084994,0.0312578616940846,0.0564536432168861,0.128343947144289,0.466362988820638,0.0234304429622753,0.00511723373854451,NaN,NaN,NaN,NaN,1.64682358488304,-115.230680905002,1.5,stable,stable,1,0.461697618804954,0.187757732488709,0.124928981967243,0.956417803907157,0.942958245713649
157,1.63348594912001,2.39663791656494,-0.72767109049839,-1.43847014158406,1.63348594912001,-0.0614385909985145,-0.00296801714990411,0.0615102397140904,-0.032755866417832,-0.112745814287729,0.119733822233324,0.00772257475040892,0.157621965156648,0.159551371344654,15.4219442159687,0.777827353942081,0.807777018477384,0.176389476017145,0.240195948574789,0.121958766272022,0.412127155946001,0.156637721090512,0.0409873736899966,NaN,NaN,NaN,NaN,1.69535374865113,-115.407012304463,2.03689161894107,stable,stable,1,0.467506527367599,0.182986069956027,0.194312906426368,0.899346941922417,0.345796103879101
158,1.62180376052856,2.34415578842163,-0.751331439761255,-1.41920207563649,1.62180376052856,-0.0492773878506629,-0.00495907790237672,0.0495262900591848,-0.0323935519956488,-0.108199517942097,0.114796731929966,0.00740657673671523,0.139903483595726,0.141651316276682,15.3763776945009,1.10015155458495,1.07576547597038,0.177232474347663,0.240214130474536,0.16307023882042,0.484523188607826,0.15954470893454,0.0355177517207172,NaN,NaN,NaN,NaN,1.65925020896733,-117.23842078182,2.01418795511992,stable,stable,1,0.460811266062954,0.171609026120124,0.186789721278797,0.894287271871805,0.327524338302035
159,2.57133699893951,3,-0.744757258787824,-2.4289349356285,2.57133699893951,0.00647000094612751,0.00343771088356333,0.0073265795813504,-0.0377429509799054,-0.308571378287357,0.312685573682781,0.0201955100647153,0.20399181965283,0.206361803366434,15.3841250897914,2.12457779547003,2.06220968379167,0.0200177276847884,0.0727805806541158,0.138204725146782,0.516793698661788,6.45706972464866e-07,0.00724086606833234,NaN,NaN,NaN,NaN,2.88835322200788,-105.56852442763,2.27123653877303,stable,stable,1,0.726962227057157,0.0977923814951902,0.0613087580846571,0.95709494882055,0.338575677712541
160,1.5446772056372,2.24319171905518,-0.68739020327005,-1.37247609451402,1.5446772056372,-0.035222252191532,0.0013630825730894,0.035248617611829,-0.0265346002037045,-0.0992930446167789,0.103756512695532,0.00669234526787783,0.101983644403942,0.103662215141392,15.4304771743659,0.916955488558042,0.802264767554741,0.176174682326478,0.240164606621503,0.14489880687792,0.431428387537316,0.159553301712546,0.0367617416886081,NaN,NaN,NaN,NaN,1.56544004446909,-115.546181583882,2.33289083777686,stable,stable,1,0.432646364531531,0.163628012081213,0.182457291856222,0.898404499681589,0.33560053027648
161,1.62348893548356,2.54706978797913,-0.756848364776275,-1.41238579981087,1.62348893548356,-0.0684623752467197,-0.0121291411754578,0.0695285041553236,-0.0350043773612498,-0.110145787832012,0.118173929217441,0.00762282407929782,0.17259427573508,0.174440320345986,15.4462284553717,1.00887312514407,0.895402469857419,0.177521388371465,0.240248027795423,0.164418227263373,0.426986477197573,0.159517270435755,0.0349812297024112,NaN,NaN,NaN,NaN,1.70136515468512,-117.053321105748,1.56921311349965,stable,stable,1,0.467818446864812,0.220552584239979,0.215948562346614,0.89627714042497,0.32692523232739
162,2.57489083965619,3,-0.715221336787776,-2.44088722681602,2.57489083965619,0.00607206755829043,0.00318894833423143,0.00685852724065746,-0.0355335558180257,-0.311377658652211,0.315009145424892,0.0203349226740459,0.201028117862179,0.203496399003185,15.4147168835599,1.74466994671153,1.6990660476865,0.0216902481224628,0.0467533916586678,0.118347711838653,0.446304688743232,0.000250264843145033,0.0067940837117129,NaN,NaN,NaN,NaN,2.85921158454158,-105.062668776886,2.1455817073056,stable,stable,1,0.727336837042289,0.0969069577381435,0.06072597935723,0.962096950268498,0.347401016960599
163,1.66832448957729,2.48983907699585,-0.772465903536368,-1.45861046738513,1.66832448957729,-0.0583103526525043,-0.00683805803934565,0.0587099332669428,-0.034847523916696,-0.113427464111359,0.12076719954676,0.00779241258465758,0.138627269103987,0.140613829446253,15.3555710485087,1.13241987166789,1.11013042934235,0.176791306153807,0.240188032695164,0.155886816682645,0.46752972902287,0.159525366694253,0.0353847217413292,NaN,NaN,NaN,NaN,1.71874998102098,-116.787170824054,2.02343494013469,stable,stable,1,0.473009296443194,0.195604269934783,0.201129896478395,0.89398430884373,0.330716970363269
164,2.49063834818927,3,-0.775616231599119,-2.3310588332826,2.49063834818927,-0.025812649662522,0.000671710440960958,0.0258213879858654,-0.0397845881529617,-0.290314170541098,0.295286172675311,0.0190609230662883,0.223940486656095,0.225642556139529,15.3656955483341,1.65154145752941,1.51642531593339,0.0626295882699654,0.24024747755942,0.115299451385892,0.478149804047557,0.00193066516319767,0.00633295878536087,NaN,NaN,NaN,NaN,2.64390369362176,-106.697557678757,2.06585984431595,unstable,unstable,0,0.70929873741171,0.119340292788157,0.0747651431825273,0.943794038359238,0.348755799384048
165,1.57896150942562,2.33786559104919,-0.681475166475181,-1.41191383456379,1.57896150942562,-0.0489280052970277,-0.00873785279439267,0.0497021103556222,-0.0270059213966494,-0.10631979926042,0.11072962016639,0.00714465438269201,0.119581556456579,0.121420393751482,15.3767244186459,1.14046846415461,1.08057390473666,0.176549992831184,0.240161763811391,0.154242964258608,0.488990246005469,0.156719723552016,0.0414769653125421,NaN,NaN,NaN,NaN,1.65443912380199,-114.70021335318,1.57354793544767,stable,stable,1,0.445340481263796,0.179865471930501,0.192655026466787,0.894273956400262,0.331447571440618
166,1.65353132903576,2.54598665237427,-0.723292236137645,-1.46893493772519,1.65353132903576,0.00365281092434474,0.00251541056680728,0.00443512321910203,-0.0304183295969773,-0.114346257370365,0.119990963034869,0.00774394563147894,0.141250489131314,0.142205599626912,15.4237665522684,1.48868582647842,1.52742279878872,0.0308236993531056,0.0531633570821398,0.11163180636374,0.417377896327995,0.0234303654689876,0.00573465992047058,NaN,NaN,NaN,NaN,1.6985678915868,-115.061450151433,1.57970809702531,stable,stable,1,0.469382807668251,0.201615553674666,0.133468158848965,0.960890153982063,0.350385863838338
167,1.50257084645382,2.12864661216736,-0.691988517570722,-1.32242322458849,1.50257084645382,-0.034049952191674,0.00174130429392235,0.0340944480069603,-0.026597150846505,-0.0926868274657716,0.0975015430220984,0.00628827336376606,0.101602525688005,0.10316292189002,15.4427297608698,0.688698251132359,0.861078245543886,0.177256093149782,0.240182836455899,0.140742645670224,0.436677927770019,0.159399454466488,0.0350664499047325,NaN,NaN,NaN,NaN,1.53242316823457,-117.234742424214,1.77694618460888,stable,stable,1,0.421318143432355,0.147117696086823,0.171866255966193,0.899195138094081,0.337447713035456
168,1.72438908515333,2.5727801322937,-0.849342367716269,-1.47303791225212,1.72438908515333,-0.0680312405240126,0.0108975144710323,0.0688985160136444,-0.0434649674069272,-0.118841071642499,0.130127125423759,0.00839352584374783,0.170608991565737,0.172567509297761,15.4094121876064,0.944275583200844,0.981458359922749,0.177086410675668,0.240221528824089,0.150163177404177,0.475405083360213,0.159495427116126,0.0351157464401949,NaN,NaN,NaN,NaN,1.76822611766951,-118.998443980142,2.06488564929718,stable,stable,1,0.494350591233774,0.203519380209084,0.205767846963396,0.896326027966195,0.333260810042588
169,2.45339784026146,3,-0.779953077951096,-2.29250373844667,2.45339784026146,0.00523518391128695,0.00303287876673692,0.00605024827579178,-0.0409309035212136,-0.277672774580973,0.282928545207405,0.0182703909302173,0.219537001796734,0.221700759844531,15.3333894534278,1.9367232762587,1.87398306106476,0.0318167308826067,0.0726988193444239,0.118391505590926,0.502961325382569,0.0232190305344776,0.00456180224637482,NaN,NaN,NaN,NaN,2.66549340284327,-107.193726307889,1.61451048072125,stable,stable,1,0.698579576038629,0.124094698125067,0.0864352251819745,0.954150370479727,0.9473815530707
170,1.72400708344518,2.40090847015381,-0.77425447906886,-1.52614573936479,1.72400708344518,-0.0593202197345107,-0.0254890712526647,0.0645645508206635,-0.0340950348760465,-0.123595310764039,0.129734577572,0.00837132824917444,0.128640861108888,0.130744625981793,15.3778012384213,1.15705357527976,1.08206397253219,0.177826112671911,0.240219154194933,0.150144084062451,0.487768206156657,0.15953844207502,0.0356165873292997,NaN,NaN,NaN,NaN,1.77840570795084,-115.675983280215,1.59213154969208,stable,stable,1,0.485884147448406,0.164139646326563,0.182341248353066,0.893493877216951,0.333269295972244
171,1.64774213691016,2.25188231468201,-0.793021231926043,-1.43314691193586,1.64774213691016,-0.0330186262625246,0.00697531511614293,0.0337473658414071,-0.0350139432209354,-0.109028732663067,0.11578065028411,0.00746669242574674,0.113128523671726,0.114987950606404,15.4608087882351,0.745293011413205,0.742943610345466,0.176738823329935,0.240170847964269,0.126185174062621,0.461751649360485,0.156734142797215,0.0412181746991873,NaN,NaN,NaN,NaN,1.68221562017466,-118.331726157389,1.94868139526123,stable,stable,1,0.462395493297322,0.142118557069591,0.16991918042608,0.899937300592643,0.343917700416613
172,2.43178467407673,3,-0.856342166480396,-2.24247169049384,2.43178467407673,0.00567347138505422,0.00910716406902208,0.010729804981318,-0.0473272968605942,-0.266521157939544,0.273474214956415,0.0176540695932342,0.217805674221106,0.219961309666812,15.3527418454793,1.72355537148316,1.76738944770781,0.020209147533514,0.0758458876229652,0.123397159577487,0.488469094621651,0.000533885307463442,0.0102032398210999,NaN,NaN,NaN,NaN,2.5789773418386,-109.450212225276,2.24912899205688,stable,stable,1,0.692468175020491,0.129815579245977,0.0818368989323135,0.962466574082457,0.345156817965562
173,1.5558656874119,2.23137950897217,-0.73385563703713,-1.35632771377221,1.5558656874119,-0.0548175477370288,-3.02943047347579e-05,0.0548175561079325,-0.0309832917003978,-0.0992549402929934,0.105572616651418,0.00681036598005284,0.123953463013788,0.125477735266074,15.4165004819537,0.92142449778356,0.964916978788707,0.176561189324338,0.240256924171937,0.18489106926506,0.429372703719139,0.159314355932013,0.0343836387937227,NaN,NaN,NaN,NaN,1.60572032516396,-117.151648626796,2.45450405559363,stable,stable,1,0.439993063696389,0.162040495137514,0.180533818876272,0.896898150879049,0.317826191437751
174,2.35166690859221,3,-0.762817355068826,-2.19199487553893,2.35166690859221,-0.0305725458730326,-0.0180203866197799,0.0354882360097684,-0.0351062058379132,-0.249154874731754,0.25363769931694,0.016373442876728,0.231138376003574,0.232607214855345,15.3923405922663,1.70512958550421,1.501072489624,0.0631635994905495,0.24017067706722,0.125261961582733,0.484384746507307,0.00185322339323277,0.00810608000128108,NaN,NaN,NaN,NaN,2.36078838964489,-107.709824257803,1.61928612294159,unstable,unstable,0,0.673632618595657,0.152381122168545,0.0951999935975749,0.943226612521575,0.344328017074341
175,1.64982717539988,2.40049314498901,-0.790800115514674,-1.4281150957773,1.64982717539988,-0.0424404400298708,0.00696507228624601,0.043008175756264,-0.0360599449528454,-0.109877050074246,0.117850269960519,0.00760175815389211,0.138405929523922,0.140219288107499,15.4423161670538,0.967082257383342,0.89994811540255,0.177037008509301,0.240209996420046,0.161457796965634,0.471075116650915,0.159536798239089,0.0357182432547508,NaN,NaN,NaN,NaN,1.70036876942666,-118.357386427334,1.51822201612067,stable,stable,1,0.467997771061469,0.176784675379536,0.189964500982175,0.896811971387746,0.328240979126385
176,1.75166005214055,2.67824792861938,-0.895989618347149,-1.47627707336164,1.75166005214055,0.00649445204503888,0.00255565568844405,0.0069792036338816,-0.0481242134471374,-0.118814782744513,0.132307618988404,0.00853757686724484,0.186309784409218,0.187331661642051,15.4467560388711,1.33744493488738,1.42994384800649,0.0288277105812864,0.0526193982289291,0.107786275195272,0.394308046392574,0.0118730445082476,0.00579598811780747,NaN,NaN,NaN,NaN,1.79740384781532,-119.424856454763,1.85501194169843,stable,stable,1,0.504575679565891,0.209761792873949,0.13324161643754,0.963842375700905,0.352094988802101
177,1.92848843133368,2.66391086578369,-0.979110544770062,-1.64869247801442,1.92848843133368,-0.0405853462179376,0.00410636084328989,0.0407925547987028,-0.0525679561270834,-0.14393947294225,0.155143076111235,0.0100098906549334,0.129714617762663,0.132281440443834,15.4022877282124,1.08510809397866,1.1392775038786,0.177052372707762,0.24027194002414,0.170300064524091,0.461538621694701,0.159642712095941,0.0365759692357828,NaN,NaN,NaN,NaN,2.00389774569212,-119.82849383685,1.97743818075156,stable,stable,1,0.540719869777749,0.17294868279768,0.188021878615069,0.893996498234384,0.324311082433737
178,1.78902710051764,2.69785141944885,-0.967332993887122,-1.47176717516142,1.78902710051764,-0.0634904334517268,0.0101422014767618,0.0642954072285368,-0.0555060674521963,-0.11912446398416,0.136828472031461,0.00882743024844235,0.186167429421653,0.188311046966598,15.4003251832981,1.04102090519313,1.00834055428565,0.176980902818906,0.24024434190489,0.169776942434713,0.440025489897453,0.159448335874024,0.0378516119953609,NaN,NaN,NaN,NaN,1.88108853169074,-121.75609313085,2.08620389431838,stable,stable,1,0.514736102864689,0.216272963084755,0.214393927449742,0.8954074228375,0.324543581140128
179,2.50177373329798,3,-0.652069852336866,-2.38166109883764,2.50177373329798,0.0050373828668467,0.00428135983324593,0.00661099600430467,-0.0314090999688808,-0.298684114736243,0.301793208296262,0.0194777444121755,0.218667060709661,0.220969342219986,15.4430422034415,1.7593952326933,1.26997220369338,0.0301057858953547,0.0536020924621418,0.112444964926938,0.478082396762476,0.0238151556030523,0.00638063025605161,NaN,NaN,NaN,NaN,2.73243854491602,-104.018907315581,1.57165883553564,stable,stable,1,0.711333530656793,0.113312925942076,0.0808924983506211,0.961144934337856,0.350024460032472
180,1.79267072033238,2.402024269104,-0.892164127700546,-1.54048214827518,1.79267072033238,-0.0465653100012548,0.00205197831284146,0.0466105000027819,-0.0442365915309983,-0.126999701675721,0.136376368956849,0.00879560944466554,0.13911448080543,0.141214248069342,15.4698498714011,0.86099456820806,0.828802824600353,0.175653176328054,0.240254111516096,0.159621867991749,0.391252240995408,0.156757838255201,0.0408675711564135,NaN,NaN,NaN,NaN,1.85620598441334,-119.444845846151,2.00603538659605,stable,stable,1,0.506288375035836,0.145649806807459,0.171920969386089,0.89889643232105,0.329056947559223
181,1.8352926341263,2.59051084518433,-0.884421417735798,-1.58753148262377,1.8352926341263,-0.0621784725334697,0.00305619476219464,0.0622535362290361,-0.0448489971436143,-0.134964511580434,0.144793476843473,0.0093379065047855,0.14514657510315,0.147324028504803,15.4673824711224,0.770734956842974,0.735028927505693,0.176148426725621,0.240272705976723,0.117890674394418,0.44502072325486,0.156777790062152,0.0429703802896962,NaN,NaN,NaN,NaN,1.8944468966032,-118.434379956689,1.6528662655405,stable,stable,1,0.518876174801308,0.181337245796712,0.194106958116045,0.900094784688736,0.347604144713592
182,2.42700952450434,3,-0.451703488471824,-2.35150100212179,2.42700952450434,0.00515192667813831,0.00433038055696369,0.00673012215825556,-0.0196164781343281,-0.293605653112922,0.294963697043664,0.0190408527560015,0.225407446695482,0.227665557404008,15.402904608738,1.72716379057735,1.6928101582265,0.0211908613726477,0.0534017789027056,0.122865190939763,0.425127320517721,0.000215240861322053,0.00582850794952225,NaN,NaN,NaN,NaN,2.61222307005049,-99.3162222201901,2.18562785906843,stable,stable,1,0.692735651348627,0.130156712715536,0.0803091476705437,0.962533345430217,0.345393248471216
183,1.81920254230499,2.59995722770691,-0.960844173777214,-1.53057009417395,1.81920254230499,-0.0462148617312442,-0.00745598530961983,0.0468124466544453,-0.0509071951904299,-0.123779413784767,0.135902102155469,0.00876754443197754,0.124605222275452,0.126747879762269,15.4080623960322,0.979989675195112,1.09906707271086,0.176254281959437,0.240242792816627,0.165152329524761,0.393582081133167,0.159594292841167,0.0354710310129203,NaN,NaN,NaN,NaN,1.87171872539055,-121.350351106356,2.29709965348803,stable,stable,1,0.510470253900452,0.18425208610208,0.194380605211515,0.895537413143877,0.326598964655662
184,2.56168960449172,3,-0.298444638586955,-2.51248713984718,2.56168960449172,-0.0262677235080691,-0.0191490996588892,0.0325066349541511,-0.0104820048436496,-0.323089042826145,0.323589182825907,0.0208863401404653,0.217096523977739,0.219078160880459,15.3914789591501,1.549888130482,1.42792975549432,0.0627300300711254,0.240279247986156,0.124282477925749,0.459493499192352,0.00185460681272513,0.00578206141247368,NaN,NaN,NaN,NaN,2.70378156394852,-95.0700514349474,1.81293024777436,unstable,unstable,0,0.726932860040551,0.104579388730957,0.0656744707194727,0.945237844431766,0.344763343144112
185,2.07110764690348,2.98430585861206,-1.20045907490492,-1.66167571951063,2.07110764690348,-0.0697108315694705,0.0075754953476407,0.0701212390639898,-0.0812210856593967,-0.148708389000961,0.174871734359627,0.011278310217859,0.173347926638727,0.176133786503862,15.4617785977223,0.818657676702657,0.88504753408068,0.175819782086071,0.240310086844015,0.154157440355305,0.393475213853697,0.15672578911104,0.0422560000988109,NaN,NaN,NaN,NaN,2.15708888634091,-124.745911655981,1.56224956088507,stable,stable,1,0.587522129808366,0.218325158129496,0.21601681936702,0.898703853729381,0.331485582064309
186,2.06072406570117,3,-1.132015976017,-1.68616932547658,2.06072406570117,0.00541416310860719,0.000918724821081108,0.00549155874624624,-0.0753659871928851,-0.154431221486749,0.178668226979906,0.0115401108608082,0.218150535838024,0.219482046484829,15.4119059785116,2.14242526769866,2.23300661090799,0.0190566959832605,0.0603304776488208,0.152769852895258,0.479449431710635,0.000319343980295724,0.00520914206964516,NaN,NaN,NaN,NaN,2.10837557196529,-122.363616262261,2.31343632469659,stable,stable,1,0.593422826817277,0.212343870987383,0.12944248673021,0.95609325867646,0.332102287602108
187,2.03924986720085,2.81721544265747,-1.09890803285205,-1.70048720874678,2.03924986720085,-0.0518024044491642,0.0155655672404175,0.0540904426884338,-0.0659091174558969,-0.153153454197126,0.169759059531568,0.0109491106562246,0.141060163421302,0.143713073505622,15.4569936872489,0.962642836157073,0.840616535795176,0.176450005934058,0.240283121769307,0.127370860130279,0.426984915382319,0.156769936947916,0.041119768107827,NaN,NaN,NaN,NaN,2.09849345512064,-122.244984043751,1.79031330893668,stable,stable,1,0.572542579288018,0.184958835637286,0.195603471863079,0.89760653053906,0.343390728830987
188,2.018487402371,2.83057284355164,-1.13649796942358,-1.65298973737316,2.018487402371,-0.050090860098282,0.00485585129638222,0.0503256749303796,-0.069782462314511,-0.144670941010623,0.1634352118892,0.0105411243598697,0.13406992201172,0.136736601731669,15.4676519333459,0.945201352837059,0.843580034292141,0.176332429841797,0.240268046693129,0.18318203650545,0.449506648694977,0.158652160385413,0.0375859913818228,NaN,NaN,NaN,NaN,2.08252249604559,-123.526280590972,1.94307064988274,stable,stable,1,0.565610627645267,0.19194559800288,0.199347063313888,0.897779074180229,0.318585761553133
189,2.50231976707776,3,-0.777355554073871,-2.34656820211177,2.50231976707776,0.00855338444854544,0.0050611142069539,0.00993857447224951,-0.0402694893155952,-0.289420118896504,0.294256266959455,0.0190036858633175,0.211028403834979,0.213261004011475,15.3632574012389,2.06460414087901,1.88293232645116,0.032179066654949,0.0769721853645113,0.129769242240872,0.506541397345031,0.024233401373429,0.00457101530797539,NaN,NaN,NaN,NaN,2.71977714743149,-106.924123588306,1.62518467949076,stable,stable,1,0.709937472023032,0.113800124394082,0.0807126626315805,0.952894108714931,0.342324781226279
190,1.98339494069417,2.6942183971405,-1.07388413544558,-1.65156337136259,1.98339494069417,-0.0439375895215724,0.0154235130696031,0.0465660448006314,-0.0632588567387909,-0.144308707930714,0.160298875558388,0.0103411780412738,0.139697259178712,0.142313317293439,15.4403728431747,0.904447443421737,1.12452797958651,0.176493871683791,0.24026393279417,0.186057738106993,0.437283959028274,0.159593569371568,0.0350301116823987,NaN,NaN,NaN,NaN,2.06580628279313,-122.281189709167,1.98714334962439,stable,stable,1,0.557367980977134,0.168472385913873,0.18475212925454,0.895811114405897,0.317307671952447
191,1.99648444425492,2.83968114852905,-0.981222727844917,-1.71643384191149,1.99648444425492,-0.0614722130852686,-0.00529678798913412,0.0616999914473454,-0.0547785879136135,-0.157642935216303,0.170062377539103,0.010969099606421,0.163822766979581,0.166425925821898,15.4621194007416,0.869839991881389,0.993320354245901,0.176407834239104,0.240301540880534,0.18173459382213,0.433466999758987,0.159597679893587,0.0366169791034284,NaN,NaN,NaN,NaN,2.07634549688122,-118.754548572983,2.27124530073608,stable,stable,1,0.565681036965692,0.20103092356036,0.204866121439663,0.897156965875162,0.319229069412387
192,2.4854474512736,3,-0.958093832578153,-2.26041060471527,2.4854474512736,0.00843414948262932,0.00266238940958169,0.00884438776081132,-0.0565187131003126,-0.26956819166093,0.278848826049796,0.0180043418645489,0.213780375634387,0.215872292791342,15.4184221378623,1.82523378778826,1.86222487313537,0.025544426541848,0.0471886552988108,0.132586963570997,0.466656104368376,0.000893887837056901,0.0064139359703975,NaN,NaN,NaN,NaN,2.68099720733185,-111.612146549017,2.02678002638299,stable,stable,1,0.705960445564562,0.117395794552922,0.0731671005677614,0.95825489725039,0.341072460635113
193,2.05301619792471,3,-1.06814044553309,-1.7306350954937,2.05301619792471,-0.0661030542471832,0.000777637735216886,0.0661076281623632,-0.0644168336166764,-0.160428689088314,0.176644082922148,0.0113958126306422,0.173214232185114,0.17599060210078,15.3490168259892,1.12295065608778,1.01377138681046,0.176976960574493,0.240265688068273,0.142927839635105,0.480368863032404,0.159521279828995,0.0350019391136572,NaN,NaN,NaN,NaN,2.11900443077325,-120.570247299149,1.50882129458426,stable,stable,1,0.582669106533412,0.225191087296707,0.2187409768282,0.894722989375696,0.336476515717731
194,2.51285157133551,3,-1.00262094728767,-2.26693476599341,2.51285157133551,-0.0319133919771223,-0.00926543691717687,0.0332312038414445,-0.0558618538388504,-0.267914682923159,0.277401478578578,0.0179040293791135,0.224625690905411,0.226233360158978,15.3722398675705,1.55268983386721,1.37236846014985,0.0630533572001799,0.240162017738391,0.108679635806132,0.5185587287845,0.00185153237114412,0.00614749664079795,NaN,NaN,NaN,NaN,2.61715863552686,-112.220792726245,1.72537340846045,unstable,unstable,0,0.715340424387932,0.115700783820441,0.0724788268922553,0.945490720518347,0.351697939641719
195,2.04364434796937,2.81251406669617,-1.03111313619234,-1.74871484187166,2.04364434796937,-0.0570964872123918,-0.00356801879149291,0.0572078631841049,-0.0584140248750752,-0.1619607425887,0.174552608266016,0.0112635323204633,0.142986556972145,0.145716141687773,15.3781379965712,1.25257451084084,1.22881594201089,0.176649297254064,0.241167561799015,0.181390617888831,0.51378218408172,0.156889008337358,0.0422778029948032,NaN,NaN,NaN,NaN,2.08957514186263,-119.371133784789,1.66991091858632,stable,stable,1,0.574115054462719,0.183483794963949,0.195192471671871,0.892178712100561,0.319381947604964
196,1.93023157874743,3,-0.915622527853918,-1.66771531641874,1.93023157874743,0.00695972413672024,0.00602326491619418,0.00920420992317656,-0.0511547351672207,-0.151107373880929,0.163715332826303,0.010566826008285,0.20557314834817,0.206815094671005,15.4306451762472,1.60535889144081,1.53946107422336,0.0304637113007423,0.0510820333503407,0.114153522642469,0.434801231341046,0.0238836628261415,0.00607546563755314,NaN,NaN,NaN,NaN,1.98818975952798,-117.123132335998,1.59075892755776,stable,stable,1,0.556091439933516,0.242385333267744,0.158255421448547,0.96005884461941,0.349265101047792
197,1.90799340963364,2.6081371307373,-0.85087769253795,-1.6929384024925,1.90799340963364,-0.065149674046236,-0.00552086892867445,0.065383178433435,-0.040750155796725,-0.151121278892543,0.158107970479093,0.0101970809899731,0.127854883742517,0.130315996100789,15.4513777985572,0.920518385480841,0.774293482385518,0.175078685792312,0.240253292825602,0.13236354464672,0.414775829688926,0.157239386002995,0.0386291143025632,NaN,NaN,NaN,NaN,1.96491164649544,-115.571452830696,2.3623367560871,stable,stable,1,0.534861441789127,0.169519253294455,0.185642674189037,0.899144278142037,0.341171757934791
198,1.79926200707753,2.58098411560059,-0.782002355926632,-1.60761454993606,1.79926200707753,-0.0435721139337549,-0.0119139946228593,0.0451715882002131,-0.0346438030735142,-0.136542998639422,0.142097415063074,0.00916541787014484,0.121364033243829,0.12363291867609,15.4378705401895,0.918799933011644,0.889286447529058,0.176819532991017,0.240214228764204,0.174986097522362,0.465985762887805,0.159547351087526,0.0349529643682765,NaN,NaN,NaN,NaN,1.88489007794024,-115.359098105949,1.5917852707686,stable,stable,1,0.504529785622561,0.184168932254392,0.194121462030505,0.897383840514529,0.322228401101172
199,2.47950886686643,3,-1.13726776549159,-2.16627022550297,2.47950886686643,0.00548397835384117,0.00357353429805302,0.0065455455055144,-0.0765222365655155,-0.248168107075662,0.265299395413011,0.0171249342148948,0.214051419038588,0.216006970632968,15.426026543699,1.77136530340085,1.64905841984399,0.032134593988968,0.0525260626613515,0.110994335368198,0.410715431348866,0.024356737642523,0.00605870360179212,NaN,NaN,NaN,NaN,2.68563096804021,-116.007396076949,1.5,stable,stable,1,0.704403758624308,0.118310521631064,0.084014694654755,0.957057945180021,0.350669184280801
200,1.888439144407,2.79273748397827,-0.827971690559278,-1.6710259128466,1.888439144407,-0.0732769351210858,-0.000318214490666958,0.0732776260614513,-0.0420211416350573,-0.151823804478422,0.160541842450163,0.010353754246556,0.186970164089915,0.18963172994324,15.4558584145873,0.843231084352433,0.758773901751094,0.176479739419023,0.240275201718027,0.128282397377857,0.423759496604554,0.159621158105904,0.0372423291649431,NaN,NaN,NaN,NaN,1.97177383483815,-114.893051128023,1.98279344924323,stable,stable,1,0.541510117830515,0.216901357848136,0.214626216795727,0.899172948256818,0.342985601165397
201,1.82036228569186,2.44791507720947,-0.778409847765425,-1.63311130535515,1.82036228569186,-0.0469772471120827,-0.00823136108901884,0.0476929455119674,-0.0340350479425928,-0.140077190552084,0.145284040626032,0.00937149429859726,0.117147460748826,0.119517504786191,15.4118051881202,0.883935339727535,0.961998600501179,0.176359839141034,0.240231111382041,0.180602728635444,0.525699353907884,0.159516562417638,0.0348199418998392,NaN,NaN,NaN,NaN,1.87135485490829,-114.338554000358,2.07148036059949,stable,stable,1,0.509333443808402,0.149943084768656,0.173523897879075,0.897316313756257,0.31973212060647
202,2.34410924474398,3,-0.959678472168626,-2.10456845787814,2.34410924474398,0.011007614621095,0.00557932913568791,0.0123408465370444,-0.0570353237985914,-0.236492820283001,0.247172827186464,0.0159560613395722,0.226128877734405,0.227978423004503,15.3988193979694,1.82403114090069,1.6848144250912,0.029771516263352,0.0525330664923852,0.126487657877402,0.392547987161573,0.0139094018015813,0.00442737749968724,NaN,NaN,NaN,NaN,2.45321237213052,-112.912057666969,1.78870860899555,stable,stable,1,0.670691483199296,0.149837908464395,0.0976946568893273,0.957544740992674,0.343783263165599
