scenario_id,mean_wind_speed,max_wind_speed,wind_velocity_x,wind_velocity_y,wind_velocity,wind_acceleration_x,wind_acceleration_y,wind_acceleration,wind_body_force_x,wind_body_force_y,wind_body_force,mean_wind_body_risk,mean_wind_gust_risk,mean_wind_risk_raw,min_thrust_margin_n,mean_abs_roll_deg,mean_abs_pitch_deg,mean_abs_vz,max_abs_vz,mean_tag_error,max_tag_error,stability_std_z,stability_std_vz,mean_imu_ang_vel,max_imu_ang_vel,mean_imu_lin_acc,max_imu_lin_acc,wind_speed_cmd,wind_dir_cmd,hover_height_cmd,gt_safe_to_land,label,success,onto_wind_condition,onto_gust,onto_temporal_pattern,onto_drone_state,onto_tag_observation
1,2.02895220526222,2.70998597145081,-1.24884763562234,-1.58237980245595,2.02895220526222,-0.0504235242258291,0.0153825099847723,0.0527176764357497,-0.0840869852054638,-0.131690037060356,0.159761306940866,0.0103018108547591,0.128237783145937,0.0456826025421125,15.4922718102322,0.885329141347436,0.998268555666446,0.176531678812076,0.240272283598181,0.14101665438148,0.451494326466234,0.159485893987764,0.0366950753614239,NaN,NaN,NaN,NaN,2.0716688985117,-127.374480982322,2.31472368639318,stable,stable,1,0.55019044191168,0.162897504738987,0.1819647861613,0.896934464403139,0.337325931386009
2,2.31377112461349,3,-1.40196402636663,-1.80211021823236,2.31377112461349,-0.00657798071342639,0.000570521525618511,0.00660267559989158,-0.111314950710773,-0.17578579290847,0.21731302573543,0.0140189310052609,0.221700869896983,0.0763235126727775,15.4644524361746,1.68217236159112,1.67608168004605,0.0232673976041976,0.147397991741007,0.125959277345515,0.469711851440599,0.00282754341140615,0.0069068405988842,NaN,NaN,NaN,NaN,2.42882567996652,-126.095851442396,2.21228503754817,stable,stable,1,0.632270335764819,0.155611987488612,0.0971354568533865,0.961980019442181,0.344018098957549
3,1.79621412370029,2.49347233772278,-1.11124798235936,-1.39524522188089,1.79621412370029,-0.0442126198565038,0.0123134734870069,0.0458952871642715,-0.0669019318711331,-0.104618823176925,0.127250418419926,0.00820620330003419,0.139430034092329,0.0475733525377226,15.4352424900324,0.969782599609283,0.923227699671737,0.17544430341779,0.240247151005653,0.144284357419654,0.379636042943504,0.159767225928705,0.0339625577252632,NaN,NaN,NaN,NaN,1.87319628751653,-127.297520073929,1.56023591690333,stable,stable,1,0.488505103494288,0.165297234135176,0.182536017440424,0.897404195939611,0.335873618924598
4,2.33330043100975,3,-0.65983303462325,-2.20894485109744,2.33330043100975,-0.0113805767568659,0.0145572906556676,0.0184778851212065,-0.03218416633278,-0.269651581267317,0.273154878816273,0.0176246080233505,0.224255410190264,0.0796138486734244,15.4237998449057,1.74845619564954,1.67671060893258,0.0622623356542354,0.240377118843669,0.1495976000887,0.513621429720038,0.00194404928548954,0.00840549640464842,NaN,NaN,NaN,NaN,2.46779887999601,-105.553838771394,2.26674036221192,unstable,unstable,0,0.638136218003951,0.153395015295028,0.0959575752288235,0.941956807279737,0.333512177738356
5,1.85020358350179,2.56868481636047,-1.08951447701403,-1.4810421645604,1.85020358350179,-0.0365863924266009,0.0103183252183682,0.0380135758131915,-0.0647068804935869,-0.116196594640747,0.135685583631935,0.00875016393214405,0.129356635907964,0.04493210552489,15.4756178429886,1.00109263218038,1.06081152610833,0.178317414723506,0.240225536442328,0.13368104948608,0.431601278420507,0.159458502771122,0.0369946645761135,NaN,NaN,NaN,NaN,1.88084050141636,-125.058018224367,1.89480737702932,stable,stable,1,0.502374043372122,0.168627432958956,0.185499510751832,0.894640617108836,0.340586200228409
6,1.87257011055946,3,-1.03481795130733,-1.52721774695278,1.87257011055946,0.00777987775758009,0.00458582101674882,0.0090308500331112,-0.0628088617779106,-0.126687353028795,0.147292116499979,0.00950088266797074,0.19446063676497,0.0649888088970705,15.4703502093827,1.52431009679098,1.27032872076737,0.0327613341840093,0.0538778197318044,0.103256990132692,0.464917468737588,0.0197989835134445,0.00379972506156349,NaN,NaN,NaN,NaN,1.9161886291726,-122.783489357006,1.67443854537405,stable,stable,1,0.512349791261938,0.255327380963524,0.163377695010517,0.961661456484323,0.35410800438547
7,1.90294747612103,2.70133280754089,-1.06305695408927,-1.55556850236665,1.90294747612103,-0.0509474920371447,0.00940815663063464,0.0518088829841127,-0.0633263697348902,-0.130134439748864,0.148770589253329,0.00959350045751049,0.153093773128867,0.0526435822589176,15.467859206841,0.944210993440062,0.808205266406357,0.176365007534971,0.24025623429899,0.11850963832541,0.431830873953809,0.159529753129624,0.0346068680407408,NaN,NaN,NaN,NaN,1.96867067391655,-123.586570068552,2.44170960726097,stable,stable,1,0.517981376750726,0.189134994783223,0.196967425023167,0.898048511333721,0.347329049633151
8,1.89226740395942,2.76983284950256,-1.11024641584574,-1.49920650249894,1.89226740395942,-0.0647323524387467,0.0129847990097663,0.0660218331885608,-0.071740402342239,-0.123357531259004,0.149126015962056,0.00961516641983329,0.183878990180307,0.0618943135479755,15.5042767067508,0.6341415167427,0.795190636294063,0.176126778834651,0.240267455949312,0.148235210055483,0.46051299934682,0.159549200461108,0.0376539486306969,NaN,NaN,NaN,NaN,1.96461919299708,-125.030810267647,2.10960542612188,stable,stable,1,0.51698350376544,0.209556227998444,0.210336837516176,0.900706143665957,0.334117684419785
9,2.61035161336263,3,-0.79996437027059,-2.45289292934328,2.61035161336263,0.00497098425759401,0.0039617624313292,0.00635659075696548,-0.0419910288809227,-0.313444477029756,0.318294967542675,0.0205334334305106,0.19691457592122,0.0734477761777235,15.4627828203478,1.7660775920673,1.61631605462696,0.0239813444965796,0.0504235390423089,0.122104428234496,0.465564964893716,0.000271491493316802,0.00597410550689901,NaN,NaN,NaN,NaN,2.98365709536118,-106.900241715489,2.0835692604505,stable,stable,1,0.710783318798913,0.0888362619655186,0.0555948220677384,0.961433377670541,0.345731365229113
10,1.84089142854522,2.5253312587738,-1.09969755794862,-1.46013243445788,1.84089142854522,-0.0479406600951607,0.00576207460895066,0.0482856955439067,-0.0655508888901735,-0.112906366223313,0.133613055090603,0.00861547955443371,0.128125435887861,0.044468466454462,15.4855642689929,0.829067546181648,0.921176686506681,0.177222116603755,0.240271879678352,0.154109000311222,0.423279498866719,0.159495085203728,0.0345833564731585,NaN,NaN,NaN,NaN,1.92399487038037,-126.353098118705,2.41530280479268,stable,stable,1,0.499798074236284,0.162851339317815,0.181173274115918,0.897637022727,0.33150711097279
11,1.8819330371156,2.7355809211731,-1.17323371600441,-1.44755325760327,1.8819330371156,-0.0441410915009435,0.0202142186605117,0.0485494654445303,-0.0762915208335039,-0.112540439375677,0.140806540185532,0.00907989195474505,0.144505621816542,0.049707610913284,15.4775605831084,0.905556178655549,0.99174397570692,0.177271205778404,0.24023279929154,0.164217576833031,0.498100445887651,0.159543357189605,0.0370456709021576,NaN,NaN,NaN,NaN,1.90759543141243,-127.844704273722,1.89692567676564,stable,stable,1,0.511790332080151,0.200971509244433,0.204962217352926,0.896457038755093,0.327014410296431
12,2.6257759642601,3,-0.78675701522578,-2.47170285070154,2.6257759642601,0.00759641833826838,0.00191508515769532,0.00783409999497103,-0.0412178374770976,-0.317817822158502,0.322446438354074,0.0208007727343258,0.194649491992513,0.0729553885117819,15.4665890961223,1.64876384338766,1.68041269253231,0.0346542784208991,0.0531509037479697,0.111201387638852,0.453498133486302,0.0246642665937075,0.0054043911692555,NaN,NaN,NaN,NaN,3,-106.299635778902,1.53248241392564,stable,stable,1,0.71479800150505,0.0856366597072219,0.0643091252406597,0.956515045150179,0.350577161049399
13,1.95378885625982,2.97927594184875,-1.03415273595483,-1.62779230771087,1.95378885625982,-0.0752798433493301,0.00630491527794249,0.0755434098473302,-0.0628938254267727,-0.144901905687699,0.163053453570044,0.0105143664722573,0.188393387133312,0.0638780726705737,15.4742406447665,0.982629248374795,0.968014274599307,0.177014412870204,0.240325965367112,0.132538064124624,0.480846554220536,0.159431792858855,0.0354333991425573,NaN,NaN,NaN,NaN,2.02726066309477,-121.319262228342,1.5,stable,stable,1,0.5337859762034,0.244584219396188,0.230493978657123,0.89616630874153,0.341094193722389
14,2.606055121268,3,-0.685804414218675,-2.48358126022389,2.606055121268,-0.00757843457280844,0.0111367378294758,0.0134706941193398,-0.0346490749779063,-0.326150913493073,0.329536908460332,0.0212592151255997,0.198268375149754,0.0743619631328459,15.4440467323368,1.65199526428569,1.37029079943851,0.0627656417761721,0.240449981690238,0.120575694228862,0.429204759642632,0.00193638848332868,0.0068729510398954,NaN,NaN,NaN,NaN,2.96211416560549,-104.652706865072,2.46895181055535,unstable,unstable,0,0.709820424964701,0.0911072249699133,0.0580242070092479,0.944870645754081,0.34641080256495
15,1.70679343314398,2.43573260307312,-0.914420190770117,-1.4229170791303,1.70679343314398,-0.0523964852786053,1.93175262661868e-05,0.0523964888395962,-0.0467715929053641,-0.108648028144084,0.1210035407989,0.00780285240214188,0.140581244408749,0.0476363700041239,15.4680287511827,0.954005091474261,0.967858562945137,0.17709069312166,0.24025046972958,0.124943674390622,0.454221282956989,0.159514278769484,0.0363462657162327,NaN,NaN,NaN,NaN,1.78867162897179,-121.8764556945,2.18872672855973,stable,stable,1,0.464672189505886,0.173617336187983,0.188282460618261,0.896354296154446,0.344469478048613
16,1.7702528544267,2.5095694065094,-1.00584396711932,-1.44232141292222,1.7702528544267,0.00590670751616341,0.00339362659490679,0.00681218725132831,-0.0550056677653224,-0.109478471956237,0.124921081622465,0.00806077566399204,0.123282903736053,0.0426274140856102,15.4108736585154,2.01033120871722,1.84346750227443,0.0308498005866085,0.0743946454443251,0.121942843850843,0.502162721774287,0.0090528626195865,0.00474582270814453,NaN,NaN,NaN,NaN,1.79698325918466,-123.928221238646,1.84024230237417,stable,stable,1,0.480592910664243,0.167595125214684,0.106306323338457,0.954295252691761,0.345803180510736
17,1.85168621491413,2.75470757484436,-1.01746938525665,-1.52691963119204,1.85168621491413,-0.0579882279236132,0.0128521651058557,0.0593953931347296,-0.0577126899076129,-0.124816665090694,0.140913927315841,0.00908676851639662,0.140225914037505,0.0484285121727292,15.4687911346513,0.907666900212804,1.03647769999956,0.176525916404868,0.240251033249659,0.155100602369282,0.465894265815835,0.159626382724024,0.0366893475585401,NaN,NaN,NaN,NaN,1.90606506718967,-122.683382350962,2.16387692000001,stable,stable,1,0.503468693078313,0.214068961392336,0.212728016754235,0.896461619938755,0.331066398946986
18,1.82989889463863,2.7843189239502,-1.03813959644623,-1.487111478504,1.82989889463863,-0.0537453329781647,-0.000285514350834018,0.0537460913497747,-0.0601875012218651,-0.119899098844463,0.137646999028101,0.00887518408048034,0.150099410644933,0.0512424520498161,15.5009825163929,0.670464130795523,0.689009418083224,0.176357415569441,0.240249275215303,0.121207907062083,0.429660319756048,0.156753783214106,0.0393770804652886,NaN,NaN,NaN,NaN,1.87952489310621,-124.36494621675,2.1134095745301,stable,stable,1,0.498221528980264,0.224597956675895,0.218746060451709,0.901139714331232,0.346129819083519
19,2.62523547927539,3,-0.786103593130628,-2.46981636466888,2.62523547927539,0.00678611939648712,0.00229079840842396,0.00716234415616957,-0.0414675834298259,-0.317444858409664,0.322196548310038,0.0207872068634354,0.198900353604848,0.0742211508858591,15.4427565022648,1.79156605429814,1.44699038201582,0.0298244357692708,0.0502252750604871,0.114695463431609,0.440579160138143,0.00991787376143267,0.00814557483299322,NaN,NaN,NaN,NaN,3,-106.031594526481,1.87032957200818,stable,stable,1,0.714907024650608,0.0856351135916693,0.0587510392609692,0.959641981544326,0.34902423847484
20,1.87692498674198,2.61860537528992,-1.00772103588393,-1.56910277893404,1.87692498674198,-0.0443708479517293,0.000485198010828391,0.0443735007078007,-0.0558110045172613,-0.130382785514212,0.144186652996282,0.00929841362108379,0.125606951141499,0.0441909748772084,15.4740200605613,1.0313857770371,0.936806994558157,0.17748714129827,0.240258185352055,0.174206881358769,0.457513427175539,0.159574296222592,0.0360568182591693,NaN,NaN,NaN,NaN,1.95533603544456,-121.682915799118,2.44619229315797,stable,stable,1,0.509351524773303,0.175013229219716,0.189041417240154,0.895792057574045,0.322574719396103
21,1.93315308029149,2.82876133918762,-1.0668013857747,-1.59120907761264,1.93315308029149,-0.0527002384103325,0.0156628604312102,0.0549785442276662,-0.0636755484249014,-0.135404375867504,0.153272331125809,0.00988529300630805,0.148874856753665,0.0515821621305153,15.4482912642724,1.16477256435995,1.18865806926443,0.17709192602031,0.240267371682703,0.167775005574148,0.51456462545753,0.1566964443354,0.0420498208995625,NaN,NaN,NaN,NaN,2.01006102178809,-122.843348050567,2.14501251137906,stable,stable,1,0.525823920503833,0.211591258026702,0.211888462928565,0.892962796297082,0.325433330855934
22,2.62853113691012,3,-0.742087727522667,-2.48920524255277,2.62853113691012,0.00630038622644893,0.00439240383683934,0.00768036965700925,-0.0375371474783621,-0.322816778179518,0.326699391181598,0.0210775314653342,0.197507107317221,0.0740064042209002,15.4527543083904,1.78921578113489,1.86530269529291,0.0137365713576284,0.0668409293804247,0.128687208458089,0.526754590130654,8.03282544096104e-05,0.00579786134164589,NaN,NaN,NaN,NaN,3,-105.373889448931,2.47646627936974,stable,stable,1,0.715742917353545,0.0849885619656745,0.0531371518409529,0.964417640577825,0.342805685129738
23,1.69959695201342,2.6273832321167,-0.839196747553637,-1.45100208246347,1.69959695201342,-0.0675856002361758,-0.000200386258222014,0.0675858973006696,-0.042653071636944,-0.115152152282871,0.126251389725601,0.00814129260708879,0.172546593197016,0.0574628827840669,15.4723279668037,0.913906043402075,0.8691539687799,0.177267699935991,0.24024276705262,0.149224657687164,0.45760396700105,0.159505592842172,0.0357148847000851,NaN,NaN,NaN,NaN,1.75191981509009,-118.497538474994,1.5,stable,stable,1,0.464718430427058,0.221142660861694,0.216564201913568,0.897356392793432,0.333677929916816
24,2.6801035053069,3,-0.62012239017267,-2.57168331067745,2.6801035053069,-0.0277394367435584,-0.00686514300110893,0.0285763283029075,-0.0265948410942015,-0.339622084047221,0.34177676869364,0.0220460755431667,0.200418511051831,0.075557806195766,15.4552792264629,1.48812741661696,1.15034829530851,0.0631247585959632,0.240242604047506,0.105238284267909,0.456085544200009,0.00185409124740008,0.0063705405943951,NaN,NaN,NaN,NaN,3,-102.185830974197,1.5670506319647,unstable,unstable,0,0.729805829320994,0.0772157048281462,0.0494700236674314,0.947706740108318,0.353227429214263
25,1.74024375766313,2.39257383346558,-0.940857117640162,-1.45134043467984,1.74024375766313,-0.0410651575914882,-0.00534531994877813,0.0414115879117013,-0.0487380100117523,-0.111800847709763,0.123868493838521,0.00798770514755109,0.119602230060788,0.041472062621522,15.4646125137315,0.885055726440119,0.839275568174649,0.176732452662903,0.240202240045503,0.134110065658541,0.456124390874333,0.159457827088486,0.0387368558035749,NaN,NaN,NaN,NaN,1.79680657025774,-122.144595008979,1.77437157976648,stable,stable,1,0.472359414567806,0.154366391506029,0.177576109659396,0.898085456353718,0.340395526373982
26,1.84667587320143,2.54923963546753,-1.02066974977308,-1.52575380847999,1.84667587320143,0.00168192322519713,0.00114204147842954,0.00203300872450441,-0.0561540332783102,-0.122002606564712,0.136414217693172,0.00880036968593297,0.117383224523963,0.041375226137342,15.4551519123908,1.65295223500584,1.75456977400459,0.0247659063902588,0.0530846132323523,0.126901721712498,0.422182521281231,0.0158305915533757,0.00775639582080569,NaN,NaN,NaN,NaN,1.89015622586425,-123.159855511628,1.60088848589372,stable,stable,1,0.500721944747849,0.158449564776032,0.104926064904988,0.960843659591217,0.343599234794445
27,1.73621127029393,2.48850297927856,-0.836450480135284,-1.51007505478389,1.73621127029393,-0.0563310500949432,0.000304505762939288,0.0563318731142385,-0.0386919413303762,-0.120415733366374,0.127769950592976,0.00823986703345568,0.115413840601311,0.0403920591038124,15.452218730136,0.968623817724989,0.898626827771731,0.175490139575383,0.240193854827645,0.122053224155942,0.434385414761863,0.159887881474196,0.0332238208317772,NaN,NaN,NaN,NaN,1.77620387229689,-117.832865156267,2.21461666446865,stable,stable,1,0.471068083899145,0.179593144592486,0.190898556804063,0.897583675140548,0.345754122597359
28,1.73905445383741,2.6712703704834,-1.00327914549012,-1.38889311806851,1.73905445383741,-0.0998569772822201,0.00354293762232759,0.0999198094420597,-0.0599691711025517,-0.105393732690859,0.126555369228577,0.0081600748645902,0.169164150818324,0.0564612976507102,15.4991369540066,0.645656867378501,0.886804318218143,0.169614089756997,0.240226630854505,0.160335284260548,0.458626295532108,0.159436009399967,0.0348861700694248,NaN,NaN,NaN,NaN,1.77693740749085,-123.63065316624,1.5,stable,stable,1,0.475040113886784,0.228067212976392,0.220386656433289,0.903152188663242,0.328739873661979
29,2.62342197219531,3,-0.518699052061245,-2.53871679961024,2.62342197219531,0.00630833117719303,0.00447527653616302,0.00773454215298338,-0.0230791628581818,-0.335172456720788,0.336799587222693,0.0217330054591338,0.197639515819296,0.0745049585671824,15.3882468028502,2.01067209303361,1.83836586019448,0.0254782043706344,0.0767718919363635,0.120022794852269,0.502130546051127,0.000182935373375869,0.0055632508484093,NaN,NaN,NaN,NaN,3,-100.208461528465,2.04726156859334,stable,stable,1,0.714480184298852,0.0861480556507695,0.0537931383093634,0.957018456753605,0.346656535621214
30,1.84814043028825,2.58292245864868,-0.928107107180878,-1.58462418725897,1.84814043028825,-0.0489773054774232,-0.00185805990584176,0.0490125375637961,-0.0473018488073735,-0.132830407769234,0.142829414458626,0.00921083749687162,0.122409549604987,0.0431704511293062,15.4802149002579,1.03507409894626,1.02209576164068,0.17697669466444,0.240267209580195,0.169894615969359,0.455672004802123,0.159475719716156,0.0364565220646507,NaN,NaN,NaN,NaN,1.90894849737311,-119.745808657761,1.55041453391777,stable,stable,1,0.501471538302728,0.174311588267793,0.188721967726719,0.89534817519174,0.324491281791396
31,1.89882035482497,2.65569972991943,-0.941059313937441,-1.63459898776272,1.89882035482497,-0.046125173480203,0.000279861008566055,0.0461260224901621,-0.0489993323706265,-0.141685304689522,0.151952359966175,0.00979883268257561,0.139759738392156,0.0487871043954496,15.4599876626508,0.96557044479037,0.868563303573232,0.177104274623481,0.240246604216812,0.157828569739245,0.426549106671702,0.159247813374569,0.0371739652476328,NaN,NaN,NaN,NaN,1.95935225919259,-119.13516242978,1.8072648405823,stable,stable,1,0.516109515499083,0.178754296852783,0.191547189600516,0.89703681180826,0.32985396900478
32,2.61943314035734,3,-0.64664459759282,-2.50562467746746,2.61943314035734,0.00510978103678975,0.00216299824099864,0.00554873171404956,-0.0307666584118585,-0.326881033506356,0.329586167409631,0.0212669371064761,0.195592129271961,0.0735644947561215,15.418089886395,2.02451358862643,2.07834000834071,0.0157871030216885,0.0753490720573953,0.133516198808909,0.523999941154247,0.000183976264625896,0.00611499577784235,NaN,NaN,NaN,NaN,3,-103.01941117063,2.42115534992703,stable,stable,1,0.713228403046514,0.0866448109005086,0.0542922885973341,0.959869741655842,0.340659467196041
33,1.87335101439028,2.71694087982178,-0.812468243964498,-1.66781686066155,1.87335101439028,-0.0543181434982231,0.00753472387590329,0.0548382419209411,-0.0385113224798326,-0.148860898317427,0.155907351315479,0.0100543775330531,0.153294293838315,0.0530263524246316,15.4812252531092,1.09619660381486,0.988799396926667,0.176348726516959,0.240286780402926,0.15654522047704,0.461982567433743,0.156678753984859,0.0419234064673681,NaN,NaN,NaN,NaN,1.93692079365451,-115.089103932968,1.98981179719229,stable,stable,1,0.510165540989002,0.199861397407592,0.204796715294647,0.895443525307123,0.330424346454649
34,2.60440194331471,3,-0.535530586081917,-2.51610330219176,2.60440194331471,-0.00884165504460424,0.0138425599177553,0.0164253258416514,-0.0257128590352235,-0.336502545270507,0.338520280751488,0.021839105521228,0.198691255522219,0.0748947505215252,15.4516581322008,1.67528638243888,1.44520544326487,0.0626322542750865,0.24042752248388,0.125813904147412,0.436352048439694,0.00194029814706925,0.00670325645192167,NaN,NaN,NaN,NaN,3,-101.157933097739,2.41439198378593,unstable,unstable,0,0.709486134988227,0.0920208724918266,0.0585124260278255,0.944165722803356,0.344082709267817
35,1.80731264101405,2.46511602401733,-0.807754591159801,-1.60376551376812,1.80731264101405,-0.0357452456314113,-0.000158457798842759,0.0357455968494574,-0.036570638412823,-0.135457764954392,0.141640481309208,0.00913306666918739,0.118699795747179,0.0420030853925847,15.4890891380532,0.803580912841215,0.676851413080446,0.176475743313749,0.240245139025044,0.119947906704609,0.395782407354125,0.159608542525713,0.035675284101331,NaN,NaN,NaN,NaN,1.86137587595629,-115.841095627455,2.25506100789816,stable,stable,1,0.490350654682263,0.15455912059814,0.176645432952614,0.900130160068026,0.346689819242396
36,1.96905163526535,2.77661871910095,-0.885422305874945,-1.74395807050071,1.96905163526535,0.0083241752890718,0.00357043174309271,0.00905758671364937,-0.0434304250089492,-0.159190035238606,0.16664971614291,0.0107506028041716,0.128948179334518,0.0462098757632755,15.4437853775737,1.68026433809436,1.51945833541436,0.0193489115802461,0.0459706665605883,0.111412315450995,0.432980740726781,0.000272652241826455,0.00657008042952743,NaN,NaN,NaN,NaN,2.00134863438598,-116.022448666907,2.29181862800911,stable,stable,1,0.534322411223415,0.183363151427179,0.112528189786645,0.96518486606088,0.350483415355113
37,1.78250784938838,2.70184350013733,-0.804185807170055,-1.56286471130284,1.78250784938838,-0.0656135573915968,-9.30802806989212e-05,0.0656136234140367,-0.0397433814474324,-0.132949174815441,0.141835336151267,0.00914634145403678,0.177628354582232,0.0596909453924952,15.4735102162986,0.932071930331474,0.956649163666785,0.176570809157391,0.240243216169392,0.15490117437875,0.390130388029134,0.159522030177228,0.0353418855513351,NaN,NaN,NaN,NaN,1.84847057739295,-116.145839673518,2.39221669595398,stable,stable,1,0.487273615582068,0.218879685711086,0.21507808625136,0.896874643968461,0.331155033609445
38,1.94754381001401,2.60438919067383,-0.766254402867294,-1.77771691045428,1.94754381001401,-0.0383798041881907,-0.00283587799695759,0.0384844328727537,-0.0335426817581585,-0.166119423329961,0.170497453184152,0.0109954800286675,0.130073964301844,0.0467190253106203,15.4613098459352,1.07245745296774,0.901573254519472,0.17729550098783,0.240272951819167,0.15231496725807,0.486804743989876,0.1595521043023,0.0372793303187508,NaN,NaN,NaN,NaN,1.9993932608471,-112.620106358339,2.36123227362853,stable,stable,1,0.52868882106586,0.154845690008464,0.177375580477565,0.895842008232971,0.332304458996413
39,2.63222257852554,3,-0.628592955023724,-2.52636672092956,2.63222257852554,0.00548848375052434,0.00108410871143906,0.00559452818189236,-0.0288021482789192,-0.331820267469845,0.334134071737761,0.0215607153159304,0.18813476818212,0.0715329311757872,15.445400098117,2.05177723984287,1.98105942165739,0.0210949875651607,0.0789312583392238,0.133374383975944,0.485022578837998,0.000375796743807339,0.00694382453535918,NaN,NaN,NaN,NaN,2.9987372183553,-102.731971335258,2.21781155603058,stable,stable,1,0.716232607175302,0.0837755833317664,0.0529573978778523,0.957765932448489,0.340722496010692
40,1.88261023832827,2.89724540710449,-0.307205480863233,-1.83065851038484,1.88261023832827,-0.0675412490693983,-0.0212744923626603,0.0708126002286556,-0.0105420865400665,-0.182408132165804,0.183062806013714,0.0118062112839614,0.197301512132944,0.0674548015386561,15.4653530471171,1.19626156952082,0.913198932007118,0.177084041763965,0.240295369632484,0.147291876252568,0.441273084356426,0.159625552178963,0.0350820420898583,NaN,NaN,NaN,NaN,1.96262077332345,-97.9255988407311,1.5,stable,stable,1,0.51552035719527,0.24127522301657,0.228466929881753,0.894883646606012,0.334536943887748
41,1.8783691699813,2.61079716682434,-0.252826064621671,-1.8439316880735,1.8783691699813,-0.0450700691423534,-0.0103937096909906,0.0462530035093626,-0.00675970699371854,-0.179829222818515,0.180124627606253,0.0116149812729311,0.147076582715542,0.0522534617057143,15.4877342271191,0.963201749283378,0.710612025625698,0.177046307585307,0.240243475969025,0.143554362837252,0.425316285449962,0.15911323321657,0.0355154811679933,NaN,NaN,NaN,NaN,1.94919332297993,-97.076725643542,1.57498836950766,stable,stable,1,0.51134913766949,0.173276016599734,0.187597322925263,0.898325452261632,0.336198060961222
42,2.6261041422685,3,-0.636273864852974,-2.5154991115554,2.6261041422685,0.0101917394303379,0.000486633220358158,0.0102033506509902,-0.0301290891490618,-0.329041985922193,0.331676360158632,0.0214065483840485,0.193355814509669,0.0729913282217346,15.4029526178506,2.23959550273869,1.97997253184769,0.0335888344736829,0.076791011928854,0.128472631401966,0.468000508378762,0.0144610096836612,0.00571382019378084,NaN,NaN,NaN,NaN,2.97766096785849,-102.83550377438,1.69051170740178,stable,stable,1,0.714892703582613,0.0859971822756027,0.0601031775780606,0.95005183391998,0.342901052710238
43,1.84187905399167,2.44413089752197,-0.23618331423946,-1.81391028524524,1.84187905399167,-0.0475243655461981,-0.0159397205454591,0.0501262407490926,-0.00534959435591516,-0.172965194350173,0.173148353307221,0.0111673626228594,0.11394635693732,0.0420010609171975,15.4509545617062,1.24355271472904,0.921622850513705,0.177095122024612,0.240239525800946,0.160657295892566,0.458709093654973,0.159517311439113,0.037396263678943,NaN,NaN,NaN,NaN,1.87761184680711,-96.9149867627548,1.84101795563532,stable,stable,1,0.499567959914551,0.144696475598319,0.171313109558617,0.894440345260787,0.328596757381082
44,2.47648992308988,3,-0.598043270205755,-2.37120529284338,2.47648992308988,-0.0155684714562417,0.0169253466699532,0.022996622869063,-0.0283382193209413,-0.307226535908408,0.309754833405186,0.0199874699060147,0.217779218873036,0.079324994596121,15.396946901804,1.86324972191409,1.52871210489123,0.0627413659958844,0.240459858915545,0.129969011976344,0.459203172683835,0.00196720025433158,0.00709411848168911,NaN,NaN,NaN,NaN,2.70268226585959,-102.84402520654,2.2590435108608,unstable,unstable,0,0.676262311743193,0.122005814830771,0.0766574795704971,0.941978188362873,0.34223599467718
45,1.66466660158975,2.42509174346924,-0.23290645170921,-1.62373654631159,1.66466660158975,-0.0578762169643257,-0.0203111299991214,0.0613367629724859,-0.00703629278379405,-0.142922663101717,0.14334793571131,0.00924467147591806,0.166724603560988,0.0564886511014389,15.4623160220811,1.09403714822879,0.897490024227328,0.177587127856185,0.240218254381406,0.138150490021886,0.456947440327497,0.159442899644859,0.0376583905144559,NaN,NaN,NaN,NaN,1.74484723470437,-96.8322370152764,1.91776297618474,stable,stable,1,0.455208823977554,0.182340730134508,0.19396190922105,0.895558722574038,0.338599782212495
46,1.65055240730445,2.60080170631409,-0.225849542605412,-1.61212950304905,1.65055240730445,0.00296370977560773,0.00150940551870839,0.00332594056680816,-0.00656620184027219,-0.140564087649899,0.140935990462639,0.00909036345192837,0.176442651028067,0.0592960497247699,15.4544663639065,1.31264113224805,1.35678308314733,0.0334662644216984,0.057461043312999,0.0908553741705115,0.4346167088935,0.0229910967506692,0.00475775866768092,NaN,NaN,NaN,NaN,1.71876069037497,-96.5690723186371,1.64145767754393,stable,stable,1,0.452006518559473,0.214415848047751,0.140597868112145,0.962292820382473,0.359619833701995
47,1.769432363056,2.38904285430908,-0.130375797924464,-1.75229515826928,1.769432363056,-0.0347733767386202,-0.0264688923466843,0.043701144056722,-0.0025541741034561,-0.161786637274474,0.161851765087899,0.0104367082600775,0.132609999334021,0.0470886955822605,15.4781090720484,0.887543517149517,0.503283493625532,0.176328975418395,0.240199879331505,0.108282456956063,0.40927953262178,0.159578935738854,0.0365824431730987,NaN,NaN,NaN,NaN,1.8330973949862,-93.5355183886098,2.07681828081994,stable,stable,1,0.481266369264719,0.147424236942342,0.172681220213295,0.90090758577757,0.351874463575083
48,1.69649930146276,2.41041898727417,-0.176858518955009,-1.67642422286781,1.69649930146276,-0.030688435980371,-0.020989863059398,0.0371800276247021,-0.00345169430029658,-0.148196691425614,0.148297683057841,0.00956506734817887,0.1129964882496,0.0405944936186051,15.4424409237211,1.23454232734731,0.97406609520293,0.176851118826238,0.240188428141403,0.152337296256998,0.444541739278274,0.156664200176334,0.0413376909958306,NaN,NaN,NaN,NaN,1.76093856199151,-95.8152911333806,2.20777219472187,stable,stable,1,0.460518712447123,0.16744826770543,0.18512938166981,0.894221088695415,0.33229453499689
49,2.6156079630057,3,-0.671748514982328,-2.4952240288584,2.6156079630057,0.00563422121172505,0.0033716774186648,0.00656602294225253,-0.0325372352188981,-0.324278353357772,0.327346100854241,0.021121254528561,0.196912150507482,0.0738585233222372,15.4541190575318,1.9132956058017,1.97134605819963,0.0342184700501523,0.0747426008008847,0.147383477951262,0.461752435360852,0.0245105143193458,0.0053457230001456,NaN,NaN,NaN,NaN,3,-103.690253195533,1.54682597921966,stable,stable,1,0.712267161465968,0.0876919791964634,0.0654526487103675,0.952368580472056,0.334496232021661
50,1.63791114781179,2.5742359161377,-0.165251412516157,-1.60551540867513,1.63791114781179,-0.0509057348812545,-0.0276788415065931,0.0579440429289127,-0.00455009969239265,-0.140661687032212,0.1409034367242,0.00908594976726127,0.162307698812279,0.0550524744807666,15.4743288290754,0.864012116764585,0.703943507509781,0.176133417280782,0.240198034949538,0.130697514830743,0.406555738798557,0.15954276807416,0.035359704805053,NaN,NaN,NaN,NaN,1.72627812567413,-94.411640590645,1.89106719515973,stable,stable,1,0.447786800979296,0.221296147410297,0.216543659842592,0.899613640026025,0.341912215630781
51,1.57245229863796,2.5339047908783,-0.132728135428134,-1.54612155695102,1.57245229863796,-0.0506787925639549,-0.0141626770321154,0.052620541962777,-0.00346814514010816,-0.129811807038497,0.129983975157433,0.00838271170706496,0.152627300497098,0.0516560883440749,15.4800315833909,1.03791418917693,0.94912171419727,0.17625563647002,0.240209837951464,0.160572001375731,0.443386796681678,0.156765482325816,0.0408488207432882,NaN,NaN,NaN,NaN,1.64198518080473,-93.7945426045898,1.67378885332109,stable,stable,1,0.429651830638938,0.225973910113918,0.220112010402636,0.896259756809907,0.328634666055231
52,2.62181308476821,3,-0.644379635789668,-2.50857865849757,2.62181308476821,0.00474433147835313,0.000406274508923342,0.00476169509241124,-0.0306570596083568,-0.327619014299678,0.330351424913577,0.0213175256969477,0.198661948095599,0.074520852416543,15.4372480137276,2.04898343932787,1.97719966368641,0.0209409551845472,0.0762129862598962,0.14795185133909,0.48987407607569,0.0109298314245133,0.00725926979109178,NaN,NaN,NaN,NaN,3,-102.899260755177,2.1208371573838,stable,stable,1,0.714054326421498,0.0859650333607609,0.0590764573412838,0.957895226598328,0.334243621627071
53,1.73469749132792,2.43489074707031,-0.145500350398861,-1.71737278486451,1.73469749132792,-0.042098952377866,-0.0274974573003081,0.0502835156815441,-0.00270619941334533,-0.156158434920065,0.156227387681717,0.010075711602958,0.124355695213907,0.0443597066862427,15.4628123551333,1.08599045165389,0.581978618524609,0.175028629115419,0.240220175639805,0.166806730482364,0.386498091807928,0.157136486886423,0.0382206064770204,NaN,NaN,NaN,NaN,1.76767167051157,-93.7767495596924,2.00204936540817,stable,stable,1,0.471457939024694,0.166762127083654,0.183794117221661,0.899380214176602,0.325863675341171
54,2.66799315188428,3,-0.558511910193656,-2.57580855463085,2.66799315188428,-0.0226303383412655,-0.00820472068931014,0.024071760530334,-0.0249918629046357,-0.341258585524615,0.34315363743014,0.0221346085400818,0.201932011863354,0.0760738295370634,15.4589936112773,1.45844263496972,1.2055676364824,0.0620537485495349,0.240278385520186,0.106022589644694,0.423343017599888,0.00188910168562218,0.00675257419645357,NaN,NaN,NaN,NaN,3,-101.106544404973,2.04670028910719,unstable,unstable,0,0.726679606409889,0.0791146969232638,0.0507639004291068,0.948041616449537,0.352878849046803
55,1.65070893245489,2.38303637504578,-0.170537220404787,-1.63110281934289,1.65070893245489,-0.0393333757698224,-0.0175403817969044,0.0430671503936728,-0.0035065505803422,-0.140955708419641,0.141069414589172,0.00909698661709652,0.118887702655817,0.0420342014287125,15.4749623173984,0.944073377353473,0.707216200637901,0.177393013364039,0.240191537659217,0.131300496523821,0.394082724631178,0.159417914988285,0.0385530388882071,NaN,NaN,NaN,NaN,1.6954412846166,-94.4207914550518,2.26219777381423,stable,stable,1,0.448595888940381,0.172669318821788,0.188473284822972,0.898329075205191,0.341644223767191
56,1.68223104139169,2.60200524330139,-0.101062395807222,-1.65496128888139,1.68223104139169,0.00379850574057172,0.00853962605754962,0.00934632864091226,-0.00268108896225904,-0.148615740375701,0.148778779267708,0.00959627640658441,0.182596828338486,0.061496441986155,15.4798083133581,1.43751815685187,1.50258673863672,0.0305580760741409,0.0698409530946011,0.104271642278436,0.440290443045587,0.0096480410287935,0.00649580779156027,NaN,NaN,NaN,NaN,1.73280982852964,-92.1431804697514,1.81513248017455,stable,stable,1,0.460894232768349,0.20866268901385,0.131847743567533,0.961620137784091,0.353657047876251
57,1.59457765185103,2.41148734092712,-0.196306599284329,-1.55980526081161,1.59457765185103,-0.0601687892119257,-0.0243074014115969,0.0648932427808447,-0.00577861251053599,-0.133358658203846,0.133694096195908,0.00862125803720259,0.164371363122047,0.0553462895626558,15.46249388019,0.958200860089602,0.69515173864235,0.176991765375694,0.240201081773655,0.137028063114559,0.356263808134048,0.159437426860746,0.0366392789032988,NaN,NaN,NaN,NaN,1.65239533729994,-95.8334835366937,2.21617784755375,stable,stable,1,0.436289965072806,0.195701774551942,0.201605517482596,0.898513489750688,0.339098638615752
58,1.62006866161515,2.42582964897156,-0.0994798745832366,-1.59410788785977,1.62006866161515,-0.052289673359728,-0.0332963102202113,0.0619907591044633,-0.00267324603824352,-0.138076477067979,0.138231938361501,0.00891453431051022,0.159407076498911,0.0540622969670303,15.4471336446115,1.0561168887581,0.877682941364789,0.176828885388455,0.240222479605732,0.137955307056089,0.458499326318209,0.15946679934099,0.034839247359207,NaN,NaN,NaN,NaN,1.68060545220575,-92.4282145747537,2.12418143528376,stable,stable,1,0.442830769157446,0.192661194657676,0.199139667056575,0.896391415783378,0.338686530197294
59,2.52583764910698,3,-0.530616331763338,-2.43833310906139,2.52583764910698,0.00695892344162815,0.0039832933978063,0.00801830666409368,-0.0233290745771989,-0.311883036878965,0.313587978123206,0.0202297362198356,0.209209932933251,0.0769237952338603,15.4673425600348,1.69183865730841,1.50563075320484,0.019355311345923,0.0520299910195446,0.113340986207603,0.418348312421759,0.00034409772861825,0.00516713037424318,NaN,NaN,NaN,NaN,2.78982386220964,-100.41262924442,2.269845497502,stable,stable,1,0.6889414654753,0.108156551839347,0.0669258199271632,0.965199370387291,0.349626228352176
60,1.69460919925145,2.32360339164734,-0.0835820849189928,-1.68119164464488,1.69460919925145,-0.0367409357307323,-0.0216196651505669,0.0426298754348689,-0.00157684051804257,-0.148673182560683,0.148714811919007,0.00959006942138439,0.110630032389691,0.0399020583118765,15.4659850259433,0.994218134067988,0.653576850628161,0.176941233155218,0.240197135034958,0.121453661628634,0.369832604664275,0.159705379079291,0.0386460050422103,NaN,NaN,NaN,NaN,1.72864210057146,-91.9462754292346,2.35151175554493,stable,stable,1,0.459876198129428,0.149339170452135,0.174636763493588,0.89858242282835,0.346020594831718
61,1.57500040125685,2.42401051521301,-0.197911454449034,-1.5418363958582,1.57500040125685,-0.0584854442673412,-0.0315019909116047,0.0664298323236112,-0.00536091276416094,-0.12934108577858,0.129610813196792,0.00835736329961904,0.154951676750195,0.0523356573347917,15.497104642259,0.782746772937793,0.761421036353403,0.177227650291162,0.240212636332119,0.139440230703432,0.397226446218039,0.158984190380522,0.0362495298990977,NaN,NaN,NaN,NaN,1.6541677253945,-95.777639022521,1.75507846029619,stable,stable,1,0.430467238468784,0.203206078232799,0.205764934344836,0.899253427781416,0.338026564131808
62,2.62041903932889,3,-0.545760271472,-2.53023353344986,2.62041903932889,0.00850712816138288,0.0052338021198922,0.00998818873391876,-0.0246461262528973,-0.332916585110625,0.334779441463291,0.0215968807714186,0.193932406186542,0.0732975383959557,15.4596858626124,1.67434668423217,1.72716361869946,0.020302153027693,0.0490030305795889,0.118408642873419,0.413866312447426,0.000220061049379661,0.00624256352722407,NaN,NaN,NaN,NaN,2.96888331606625,-100.576107342626,2.22626051663638,stable,stable,1,0.713437918166896,0.0872368840855508,0.0547099584629747,0.963122771105976,0.347373936500703
63,1.55936828965232,2.27580118179321,-0.0825363549276257,-1.54702611949686,1.55936828965232,-0.03450055583929,-0.013211827975022,0.0369437511855732,-0.0013345457654809,-0.126334535311008,0.126371084904573,0.00814973055647009,0.102562298227066,0.0364735008576489,15.4689803553848,1.05988645243678,0.842844124336197,0.177186752200681,0.240162070186839,0.143613716866719,0.431650403403366,0.159803298123555,0.0352985675341822,NaN,NaN,NaN,NaN,1.60300708299886,-92.1234906695166,2.27853258070926,stable,stable,1,0.423126244078816,0.167970421782388,0.184641783864049,0.8964565979393,0.336171681392569
64,2.60661727855372,3,-0.60303755482634,-2.50146847942925,2.60661727855372,-0.0169169892421252,0.0153470474954822,0.0228411118785134,-0.0288891383711774,-0.334487248102348,0.336993682110345,0.0217375893667206,0.200982797454362,0.0755111517930131,15.4517118208124,1.45164925343576,1.22704551954699,0.0622764001542399,0.24047148770885,0.108156576875751,0.380765101710063,0.00191725977212952,0.00756492403757752,NaN,NaN,NaN,NaN,3,-102.201792877698,2.33752551503923,unstable,unstable,0,0.710200171306261,0.0926986495031407,0.0592221866243742,0.947814912420873,0.351930410277444
65,1.51909856001536,2.10673499107361,-0.136747581631599,-1.50391179684087,1.51909856001536,-0.0326739187055159,-0.0062931199021141,0.0332744394645056,-0.00229525181773359,-0.119583548999865,0.119640428776332,0.00771496872956288,0.107904593051964,0.0377718560262831,15.467198269792,0.861347223053836,0.505331666485109,0.176677553644505,0.240178793307609,0.132566506275244,0.392633503688569,0.159547288573578,0.0344677139684518,NaN,NaN,NaN,NaN,1.55228808798252,-94.2268777224065,2.28598446802752,stable,stable,1,0.412647320542686,0.138318510889932,0.166434726737007,0.900923031902799,0.341081552766558
66,1.57617328246435,2.40842914581299,-0.121381240895499,-1.56209654780899,1.57617328246435,0.00253988977275261,0.00378483283449548,0.00455806972772559,-0.00205035196763986,-0.127713327231158,0.127763276100425,0.00824099514575331,0.106627680465787,0.0377570007417635,15.4632574857091,1.45544386550206,1.58103887467871,0.0331619378584406,0.0500324446293126,0.111477776524026,0.382105978968429,0.0208084189976798,0.00617454017364102,NaN,NaN,NaN,NaN,1.60696450398557,-93.5145725727472,1.62882991095964,stable,stable,1,0.427864275472178,0.188093215370194,0.124349402779177,0.959560952397931,0.350454321544877
67,1.68127904335658,2.4198169708252,-0.114976457457472,-1.66147006013355,1.68127904335658,-0.0478975849667555,-0.0124437114929988,0.0494876206880928,-0.00262012108773018,-0.146546880959428,0.146636169737793,0.00945698699646372,0.128557558177041,0.0451871583506368,15.4556308297221,1.07952158302874,0.767171980583228,0.177135502502613,0.240209627470823,0.154117252729125,0.346266630658739,0.159490418911424,0.0336375984080193,NaN,NaN,NaN,NaN,1.70472744872138,-93.0615211949791,2.4458639285791,stable,stable,1,0.457378509898548,0.175243764139923,0.188262743077805,0.896922513606028,0.3315034432315
68,1.58125198934529,2.26211404800415,-0.124997053907793,-1.56175227098987,1.58125198934529,-0.0430896688458921,-0.0268213529706605,0.0507553399794091,-0.00253950803396651,-0.130229274897221,0.130313699915823,0.00840274663428796,0.132524166063262,0.0456391724629801,15.4847457010984,0.774825215117518,0.599789096399579,0.176485846485375,0.240171006788892,0.124011190296652,0.387250048598191,0.156650721572464,0.0416301851657975,NaN,NaN,NaN,NaN,1.6346567991892,-94.1375227104005,2.00090394874258,stable,stable,1,0.430795031651341,0.162499108861135,0.182260257388975,0.900956535738249,0.34488391542371
69,2.6196793560187,3,-0.394235218321916,-2.5547568934671,2.6196793560187,0.00812448380568104,0.00485038861300972,0.00946221468822114,-0.0169869435178035,-0.339594540812405,0.340588500795329,0.0219833030600428,0.20240231531164,0.0761090067355221,15.3866826002497,2.19369083752351,2.00764499965159,0.0271074439425357,0.0731235661199171,0.134795006766627,0.447282454778008,0.000780132769426273,0.00513272119805128,NaN,NaN,NaN,NaN,2.97762147861884,-97.4745863886534,1.99066821668228,stable,stable,1,0.713802962952092,0.0873068842552992,0.0545973003004988,0.953435782165214,0.340091108103722
70,1.68273003774435,2.54133892059326,-0.0876088991084395,-1.65987362555381,1.68273003774435,-0.0521005861147138,-0.020129155003693,0.0558538624864871,-0.00227197114936644,-0.149779534383585,0.149891239503267,0.00966548694260961,0.174507773080851,0.0591181727840821,15.4786676600051,0.863550392405534,0.513332757372695,0.177109712408729,0.240210227572571,0.110866841388992,0.359194333984736,0.15948561477027,0.0381274627011788,NaN,NaN,NaN,NaN,1.74106956136438,-91.9626622500687,2.04792194832598,stable,stable,1,0.460551644621977,0.203426873430194,0.206803151402907,0.900626776190235,0.350725848271559
71,1.62841126059188,2.33233785629272,-0.196373840908491,-1.60593409239269,1.62841126059188,-0.0349963869115295,-0.00300904240525339,0.0351255097195483,-0.00375967822504799,-0.136052461454426,0.136171707737388,0.0087803851826741,0.107397020542701,0.0383653757906821,15.4942333267658,0.833271373900688,0.549102708038722,0.17688982575116,0.240194597456771,0.142760151794255,0.397096796234044,0.158989834874611,0.0356515394664639,NaN,NaN,NaN,NaN,1.67774962146967,-95.9395937551425,1.66372510775086,stable,stable,1,0.441916077982639,0.164823160814607,0.182520241491548,0.900693576480611,0.336551043646998
72,2.6158962849776,3,-0.605870260545503,-2.5080470956935,2.6158962849776,0.00585710669646841,0.00382142248521536,0.00699349473899313,-0.0292192608606303,-0.32742357137533,0.329961015856623,0.0212842017663907,0.205496881855507,0.0765480057931255,15.4499138670206,1.47275723178165,1.15461722462469,0.0316230384058474,0.051309323451099,0.0993632711934534,0.36352946068248,0.0173653697593861,0.00940222488153634,NaN,NaN,NaN,NaN,3,-102.28205700878,1.69871754403865,stable,stable,1,0.712881943819317,0.0877054765821899,0.0637602189306098,0.963544824353884,0.355838546136243
73,1.69748038175155,2.58038258552551,-0.160364533887587,-1.66729302355406,1.69748038175155,-0.0553449389459341,-0.0276750409345778,0.0618786728821791,-0.0042547270527132,-0.151177767947689,0.151388889460931,0.00976184118847859,0.160275080434105,0.0549158129621664,15.490353099952,0.843721195286339,0.576814075823514,0.176814496367297,0.240232376676541,0.140006535435427,0.364608758349699,0.159439951677925,0.0362713903559548,NaN,NaN,NaN,NaN,1.730743683828,-94.7490683234343,1.84293986537595,stable,stable,1,0.463644597726179,0.209997419210875,0.210050248765344,0.900431403257631,0.33777487313981
74,2.67180178141946,3,-0.601371456643473,-2.56652605277206,2.67180178141946,-0.0275599763034369,-0.00783910778263759,0.0286531657007356,-0.0254189757622859,-0.338423981022938,0.340427961232251,0.0219612122857574,0.204405076890413,0.0766943716671542,15.4472617963022,1.60850071028358,1.44061852769513,0.0633897536272582,0.240385508568255,0.129689600330787,0.41460149060276,0.00189425190775013,0.00698379106024199,NaN,NaN,NaN,NaN,3,-101.440236798872,1.72093177537655,unstable,unstable,0,0.727819349378621,0.0790976795590891,0.0508400578577738,0.94434775774511,0.342360177630762
75,1.64074553113405,2.60108399391174,-0.177580554467842,-1.60654680816845,1.64074553113405,-0.0585964065239125,-0.0288601669070078,0.0653180533345565,-0.00520790399909991,-0.141230890300712,0.141514709024634,0.00912590856499466,0.178004920571036,0.0597896121668072,15.4800924766023,1.01362390126168,0.835219626445639,0.177273316074448,0.240240270104115,0.154500197129696,0.505910768254026,0.159485361843164,0.0348683499253392,NaN,NaN,NaN,NaN,1.72844746755899,-95.0560971705178,1.5,stable,stable,1,0.449490064069109,0.228051130569649,0.220392461356046,0.896836714245075,0.331333245720135
76,1.75650496006012,2.41722631454468,-0.216993333930018,-1.7311894769396,1.75650496006012,0.00334671826999466,0.004522770199933,0.00562636414215415,-0.00467693301187968,-0.157094163202863,0.15725250863117,0.0101438470878022,0.127623270072126,0.0453876739830995,15.4626835903449,1.64092823605056,1.5154486491151,0.0330253552095614,0.0729726418389255,0.100474234429695,0.494737494191605,0.0246483076994539,0.00413848322183084,NaN,NaN,NaN,NaN,1.80133462105751,-96.2777836497926,1.58924350865169,stable,stable,1,0.477478857479318,0.149693804851754,0.102275989322788,0.958687218297489,0.355344784697913
77,1.68409736924523,2.55555891990662,-0.131006841737828,-1.66463571940356,1.68409736924523,-0.0494266674535008,-0.00738869177216019,0.0499758763971473,-0.00281693733225239,-0.150025222197958,0.15011143605969,0.00967974657721211,0.132776214498908,0.0466086869537208,15.4771019534986,0.941459202733929,0.699774290593439,0.175859271973635,0.24021873930862,0.104646269444643,0.367062274948187,0.159925875344779,0.0350775867121966,NaN,NaN,NaN,NaN,1.75923009576763,-93.8331549635916,1.96792578796645,stable,stable,1,0.458414369189473,0.205241092904955,0.206978308640037,0.899174957994182,0.353490546913492
78,1.78770134913041,2.70770335197449,-0.215422778137446,-1.74911693810444,1.78770134913041,-0.0713061769347039,-0.0337117113598824,0.0788736353406848,-0.00679070139641469,-0.1669209807723,0.167272661637625,0.0107878991271015,0.184878739307982,0.0630151511813658,15.4597919225837,1.18610203246093,0.816577001650599,0.175805959673304,0.240231938425685,0.157359117182152,0.387043297363154,0.159499992860737,0.0354043856441776,NaN,NaN,NaN,NaN,1.84421771642335,-95.6415120879709,1.86582297442111,stable,stable,1,0.489323390004383,0.221460617119042,0.216639578039737,0.896361684895329,0.33006261458571
79,2.61930835008621,3,-0.403168528889408,-2.55658331497962,2.61930835008621,0.00494331669327774,0.000464933056632538,0.00496513269482177,-0.0165368843248113,-0.340308974311513,0.34118898197918,0.0220144332026964,0.200474196420193,0.0755523621679455,15.4279744424796,1.93382163237433,1.50856667606182,0.0259414609003548,0.0557047975671716,0.120194502893163,0.418786661717551,0.000929744806097767,0.0082589086669255,NaN,NaN,NaN,NaN,3,-97.5958361626102,2.02433980419228,stable,stable,1,0.713592699123246,0.0865658955579863,0.0553559967638586,0.959981932840681,0.346580220936372
80,1.78023451688338,2.69835233688354,-0.240733482177266,-1.7420814543008,1.78023451688338,-0.0539004008459337,-0.0203183084425912,0.0576028373374143,-0.0072809678196023,-0.165353897241476,0.165722014427513,0.0106872630168868,0.179010916948817,0.0611843591964659,15.4662909741767,1.05138899597513,0.676159375457638,0.177319912699845,0.240248426454829,0.129322572337619,0.393396446712256,0.159487630275206,0.0366560029846422,NaN,NaN,NaN,NaN,1.84269174465958,-96.4089816842801,1.87042464952883,stable,stable,1,0.486966076341529,0.217137029678562,0.214495064671341,0.897766449303106,0.342523301183281
81,1.84155260624529,2.54132390022278,-0.212910786673776,-1.8172037818019,1.84155260624529,-0.0487144228696217,-0.0200504084716637,0.0526793496106481,-0.00461847575209147,-0.173215473305182,0.173356447017485,0.0111780175681966,0.124689686187149,0.0452315181538822,15.4931471236255,0.855627302903744,0.547953105484554,0.177090785530915,0.240202092527907,0.122469833692374,0.457400407437771,0.15975161298957,0.0370407631971056,NaN,NaN,NaN,NaN,1.90149022471625,-95.3637271300002,1.81723791766504,stable,stable,1,0.50012699862952,0.167106421906888,0.184733938463697,0.900426475454349,0.34556896280339
82,2.59307649334272,3,-0.403803398916041,-2.52941964731576,2.59307649334272,0.00593663840590973,0.00573522760213193,0.00825448430919693,-0.0169363076259173,-0.333623039804133,0.334584718420982,0.0215815178783354,0.203315976156265,0.0761018553617144,15.4636257486781,1.45206136577201,1.44488619970359,0.018108543703017,0.0461166819389866,0.104478039106528,0.406604094632565,0.000159432718393764,0.00526082531360183,NaN,NaN,NaN,NaN,2.91783086718893,-97.7855854258006,2.32777959186353,stable,stable,1,0.706707435963734,0.0930711111212414,0.0578265530454619,0.968183997276897,0.353565315952654
83,1.7141345578271,2.50830698013306,-0.305607669572208,-1.67517108683381,1.7141345578271,-0.0386801593239047,-0.0128248062541661,0.040750832884489,-0.00714755266392705,-0.148254754674562,0.148586145556249,0.00958244022687324,0.125510342329717,0.0443608108577263,15.4424770455189,1.03004645383773,0.612974165468809,0.17609287859484,0.240219200577778,0.149144111448691,0.347593733713015,0.156741247937297,0.0414431215340261,NaN,NaN,NaN,NaN,1.75027764965131,-99.5200046041142,2.28305228055148,stable,stable,1,0.465974710925438,0.186159781047663,0.196428871501992,0.899044112979457,0.333713728245026
84,2.5781677200201,3,-0.424181976258726,-2.50840059312368,2.5781677200201,-0.0156496299799671,0.0163336366116088,0.0226207560322366,-0.0191514896665655,-0.340507056296163,0.341738938451882,0.0220519200454754,0.208736432960199,0.0780572739198924,15.4126757528179,1.93074543233114,1.66280678418562,0.0626024289660681,0.240396090512817,0.140168832948278,0.478692073058391,0.00195665432682224,0.00813679534100434,NaN,NaN,NaN,NaN,2.95681470906161,-98.270421652992,2.2538357207851,unstable,unstable,0,0.703122846789338,0.0990594016013882,0.0632640997755434,0.940463732387191,0.337702740911876
85,2.04244582831454,2.77483987808228,-0.44141857027247,-1.9792990693646,2.04244582831454,-0.0571869997056941,-0.020631995762559,0.0607950013116647,-0.0136653829823044,-0.206315197433266,0.207103791639096,0.0133556921212177,0.135383350738391,0.0499639897063697,15.4679224600008,1.07417475691866,0.831572411647982,0.176982883694288,0.240287655047912,0.129402421663666,0.384811627738062,0.159571371818219,0.0355312717341099,NaN,NaN,NaN,NaN,2.10680641889481,-101.731697741666,2.29234006821311,stable,stable,1,0.554645018825152,0.175934411438212,0.189401719008681,0.896534830399832,0.342487812593926
86,1.98073698361715,2.87480902671814,-0.554183615891087,-1.88807400797472,1.98073698361715,0.0028552245679293,0.00364749780272888,0.00463212128017165,-0.0189685196055394,-0.186370683044604,0.187878724259723,0.0121194861927179,0.135823542482455,0.049230703079639,15.4706620017411,1.6596851833357,1.72999441902683,0.0190716342900078,0.0483209262291602,0.120678509446744,0.391962587767984,0.000271384961933244,0.00524485470597741,NaN,NaN,NaN,NaN,2.01104491577433,-105.279667622794,2.27451491525124,stable,stable,1,0.5380426695805,0.202015431932421,0.123237094591173,0.963830985979291,0.346365106912558
87,2.00715527404733,3,-1.16488331862773,-1.60152730383605,2.00715527404733,-0.072292737028378,0.00939247653851136,0.0729003322528828,-0.0781692820390189,-0.140070853477151,0.167042224634871,0.0107709746181218,0.194937833620574,0.0660210323188574,15.4893331927334,0.836652826285786,1.00344660141743,0.176414951442948,0.240332180521221,0.16235704415158,0.405245774616506,0.159732090981755,0.0364068731086923,NaN,NaN,NaN,NaN,2.06469467336038,-124.238920485483,2.15089709710888,stable,stable,1,0.548445612876393,0.236755124252379,0.226283977936378,0.897334600203715,0.327841313710409
88,1.95790455049398,2.82029914855957,-1.10836800104712,-1.5914710339652,1.95790455049398,-0.0519826542339375,0.0152985072481318,0.0541870894699673,-0.0685123659574646,-0.13552764400744,0.156030277953976,0.0100635640585088,0.152757289936999,0.0528716818220559,15.4537886562501,1.17667154769779,1.24753042192839,0.177581294085753,0.240303119845815,0.180064339895895,0.518437641561652,0.159103942314445,0.0372066716726831,NaN,NaN,NaN,NaN,2.00959748573364,-123.70580417537,2.1633824426288,stable,stable,1,0.532682216496139,0.203973084300918,0.206626412621482,0.892162051767204,0.319971404490713
89,2.62620740016301,3,-0.235094882208625,-2.58471917806003,2.62620740016301,0.00692893440087323,0.00712541114529623,0.00993889409950202,-0.00891735909618402,-0.347182345339352,0.347574018419352,0.0224273053573104,0.194744806316541,0.0741225556450796,15.4196307803033,1.91945190163611,1.95563496319758,0.0196565484056292,0.0702417021407264,0.130397781288277,0.508745422712023,0.000121135399256189,0.00599284482411289,NaN,NaN,NaN,NaN,3,-94.0907171926139,2.26372578701374,stable,stable,1,0.71514648450582,0.0859254655482304,0.0537883335838406,0.959724614716349,0.342045430538543
90,1.93498112159233,2.73005509376526,-1.04415386804384,-1.61430232652366,1.93498112159233,-0.0419841851305376,0.00529398410618014,0.0423166405659965,-0.0596414973111833,-0.13793254383168,0.152715097891491,0.00984836437159001,0.127910816403108,0.0452670999810455,15.4755600448578,0.989623703298161,0.853096762127428,0.177150721338164,0.240252642767754,0.164476775278394,0.375871006410584,0.159018093118209,0.036483234546471,NaN,NaN,NaN,NaN,1.99637079272466,-122.311062912018,1.7387057666172,stable,stable,1,0.525048385754163,0.186649694509343,0.195931155502314,0.896946121388289,0.32689921098738
91,NaN,NaN,NaN,NaN,NaN,NaN,NaN,NaN,NaN,NaN,NaN,NaN,NaN,NaN,NaN,NaN,NaN,NaN,NaN,NaN,NaN,NaN,NaN,NaN,NaN,NaN,NaN,NaN,NaN,NaN,unstable,unstable,0,0,0,0,1,1
