scenario_id,mean_wind_speed,max_wind_speed,wind_velocity_x,wind_velocity_y,wind_velocity,wind_acceleration_x,wind_acceleration_y,wind_acceleration,wind_body_force_x,wind_body_force_y,wind_body_force,mean_wind_body_risk,mean_wind_gust_risk,mean_wind_risk_raw,min_thrust_margin_n,mean_abs_roll_deg,mean_abs_pitch_deg,mean_abs_vz,max_abs_vz,mean_tag_error,max_tag_error,stability_std_z,stability_std_vz,mean_imu_ang_vel,max_imu_ang_vel,mean_imu_lin_acc,max_imu_lin_acc,wind_speed_cmd,wind_dir_cmd,hover_height_cmd,gt_safe_to_land,label,success,onto_wind_condition,onto_gust,onto_temporal_pattern,onto_drone_state,onto_tag_observation
1,NaN,NaN,NaN,NaN,NaN,0,0,0,NaN,NaN,NaN,NaN,NaN,NaN,NaN,NaN,NaN,NaN,NaN,NaN,NaN,NaN,NaN,NaN,NaN,NaN,NaN,2.0716688985117,-127.374480982322,2.31472368639318,unstable,unstable,0,0,0,0,1,1
2,NaN,NaN,NaN,NaN,NaN,0,0,0,NaN,NaN,NaN,NaN,NaN,NaN,NaN,NaN,NaN,NaN,NaN,NaN,NaN,NaN,NaN,NaN,NaN,NaN,NaN,2.42882567996652,-126.095851442396,2.10387515459019,unstable,unstable,0,0,0,0,1,1
3,NaN,NaN,NaN,NaN,NaN,0,0,0,NaN,NaN,NaN,NaN,NaN,NaN,NaN,NaN,NaN,NaN,NaN,NaN,NaN,NaN,NaN,NaN,NaN,NaN,NaN,1.87319628751653,-127.297520073929,2.02651962562808,unstable,unstable,0,0,0,0,1,1
4,2.35008180169631,3,-0.676292308275879,-2.21987758803488,2.35008180169631,-0.0143526461767659,0.00647950036819075,0.0157474562166979,-0.0335385023056688,-0.270550577076493,0.274367914547632,0.0177078021884113,0.236446747948287,0.23799681331581,15.4404179395295,1.60685541975301,1.43525978221685,0.0581993515127902,0.240456267037025,0.118356519256333,0.38456150317828,0.00195404549618339,0.00764748324015088,NaN,NaN,NaN,NaN,2.46779887999601,-105.553838771394,2.18653196076212,unstable,unstable,0,0.674287843115511,0.149118628258059,0.093120544616224,0.946997990513842,0.347397102552741
5,1.76848399683281,2.76711869239807,-1.00972604933036,-1.42132284039929,1.76848399683281,-0.00994865571601314,-0.0170523312316772,0.0197422833276851,-0.0588760133273184,-0.112974941177594,0.133023131120633,0.00857882919778573,0.189656401503616,0.191993167690292,15.4708560888751,0.702550841561508,0.869120065893975,0.172267146155584,0.240273389463074,0.130621461553064,0.387139763569732,0.156593470665193,0.041953247608559,NaN,NaN,NaN,NaN,1.88084050141636,-125.058018224367,2.37379418155236,stable,stable,1,0.509994366026808,0.228312225112259,0.221840159543887,0.901517584077915,0.341946017087527
6,1.87164591987928,2.66837620735168,-1.03342173687889,-1.54577290136545,1.87164591987928,0.00521301293285412,0.0040027165681222,0.00657246101265152,-0.0581203302380361,-0.125710803049719,0.140919532060287,0.00908967309439298,0.132638893376727,0.133712649612621,15.4485723239032,1.02055205870364,1.01464201365793,0.0271392744283016,0.0794833277370158,0.0799578762398133,0.460435330967798,0.000219136688798221,0.00234836941642046,NaN,NaN,NaN,NaN,1.9161886291726,-122.783489357006,1.74297205966838,stable,stable,1,0.525848108556998,0.180469265866944,0.109232906119139,0.970439552217294,0.364463166115639
7,1.92035548863588,2.63898587226868,-1.06119670396419,-1.58723614656919,1.92035548863588,-0.00632931073756754,-0.00744934002185136,0.00977511335861862,-0.0605572910626428,-0.133677108607453,0.149061710374959,0.00961374379693385,0.128162356944368,0.130832740631885,15.4653727151606,0.850194640725653,0.865238048286655,0.17175835111408,0.240273731270195,0.124752390926624,0.410967851799644,0.159557376583614,0.0370536273903382,NaN,NaN,NaN,NaN,1.96867067391655,-123.586570068552,1.67999245466534,stable,stable,1,0.538261345095944,0.163483940433127,0.182478800176353,0.900642424743578,0.344554492921501
8,1.87318109582972,2.72493314743042,-1.07254038004982,-1.51430886075991,1.87318109582972,0.00530231823497388,0.0112986957065242,0.0124809896776484,-0.0639904753036552,-0.123234239594528,0.142914150517128,0.0092196325470128,0.147532713456127,0.150092707145378,15.3754314035374,1.02099325224209,1.08851457306055,0.172126822779988,0.240245684218397,0.129381485223001,0.488146284933262,0.1594303051465,0.037833729873241,NaN,NaN,NaN,NaN,1.96461919299708,-125.030810267647,1.55568958503761,stable,stable,1,0.529533500317,0.19393239305106,0.200975069182987,0.897361884268342,0.342497117678666
9,2.62620397170385,3,-0.810232422206368,-2.46481767887609,2.62620397170385,0.00850723741760648,0.00426126883744268,0.00951480428513818,-0.0429933344689199,-0.31619893749786,0.321208060242663,0.0207310402014146,0.19835746965649,0.200918281546333,15.4337026018188,1.78931953907272,1.42038969967411,0.0157016025633575,0.0502736749463338,0.106679819024263,0.386358407241271,0.000234618051841846,0.00481603554143446,NaN,NaN,NaN,NaN,2.98365709536118,-106.900241715489,2.14221198952908,stable,stable,1,0.740504715430293,0.085848487152243,0.053364652632484,0.966930054699596,0.352586747100327
10,1.84714693228404,2.82218384742737,-1.08873912132047,-1.46973542528511,1.84714693228404,0.00981993813003634,0.00976883496165103,0.0138514014231672,-0.066158195154374,-0.116460190152464,0.138310716460217,0.00892233297717701,0.149290777944505,0.151815143730825,15.3793023854722,1.04626913705022,1.07705546200285,0.172541854310938,0.240268768442267,0.15553528964398,0.46710947574478,0.159425324400705,0.0367427602442797,NaN,NaN,NaN,NaN,1.92399487038037,-126.353098118705,1.97906024975182,stable,stable,1,0.522935544021908,0.221922729501497,0.217370341159737,0.897045808137685,0.330873204602676
11,1.82854740619659,2.62363409996033,-1.10724705141695,-1.43348161229068,1.82854740619659,0.0149769047634311,0.0135186693488531,0.0201757799664971,-0.0676597652662355,-0.111333344397857,0.134629155550063,0.00868590159196386,0.14894040274275,0.151316596336204,15.4044039658244,1.10452828711759,1.12553785274334,0.171646482484972,0.240229873126384,0.156964886959197,0.510187818721121,0.15672753101615,0.0403970262865191,NaN,NaN,NaN,NaN,1.90759543141243,-127.844704273722,1.51551043028508,stable,stable,1,0.517875960919666,0.182593399090698,0.193902547646593,0.89665481051575,0.330237828018135
12,2.63250473936399,3,-0.800714450733278,-2.47562673754458,2.63250473936399,0.00731124667638354,0.0061007752307331,0.00952227842372065,-0.0418587071609085,-0.318807884254117,0.32357942824985,0.0208898296757361,0.19461031920766,0.19712982158253,15.4322738047002,1.91872701043296,1.74409274880506,0.0120088982547387,0.050711557327839,0.120703041346215,0.418690536228114,0.000258065671924417,0.00327466684962017,NaN,NaN,NaN,NaN,3,-106.299635778902,2.27858760011383,stable,stable,1,0.741427228146903,0.0844321846874515,0.0519647946119759,0.965216252764332,0.346354203846127
13,1.92154887340687,2.89137101173401,-0.985262219992142,-1.6236056975627,1.92154887340687,-0.00968873147122462,-0.017574885220237,0.0200685851027421,-0.056662365013396,-0.14573045427154,0.160663067692421,0.0103623854135863,0.192164329817346,0.194824418241253,15.3959995346964,0.968017510328568,0.982368294460996,0.172211198811984,0.240338464132492,0.111894064440573,0.438481005304242,0.159481206700796,0.037073248756008,NaN,NaN,NaN,NaN,2.02726066309477,-121.319262228342,2.12074963969247,stable,stable,1,0.551377916556749,0.221889221725776,0.217495250712752,0.898569940699233,0.350269304693079
14,2.66651109395508,3,-0.743654677244185,-2.52234048031558,2.66651109395508,-0.0311954329620817,-0.0060171799265726,0.0317704499804533,-0.0342505120689241,-0.328341926329944,0.331845577332408,0.0214145495037132,0.203473622752176,0.205525876334334,15.4440250250487,1.53252523002936,1.16808576795862,0.0582253652777045,0.240528169611532,0.104455145873899,0.464051476434411,0.00184819022169652,0.00711861083407846,NaN,NaN,NaN,NaN,2.96211416560549,-104.652706865072,1.79616219544909,unstable,unstable,0,0.752174800321553,0.0808595863565245,0.051925755448071,0.949668230948385,0.353575490722712
15,1.69327299735125,2.66367793083191,-0.883504344086641,-1.42677917168311,1.69327299735125,-0.000562859710872696,0.00679413813203037,0.00681741329326841,-0.0437793927962385,-0.109148770492062,0.120223791502016,0.00775576049042525,0.129074845525588,0.131156576135637,15.3748497825544,1.05537486442511,1.06500816543968,0.171911304213125,0.240194363093551,0.1402656156817,0.496430016315746,0.159456544171561,0.0384935900315132,NaN,NaN,NaN,NaN,1.78867162897179,-121.8764556945,2.40006127516168,stable,stable,1,0.477770781187462,0.219590969136913,0.216621825771877,0.897384195515929,0.337659726363689
16,1.75532327651978,2.51233553886414,-0.997867399340195,-1.4225503401509,1.75532327651978,0.00320826566975833,0.0017965152872915,0.00367701452067053,-0.0552611596421531,-0.107047430366953,0.124004779094745,0.0079986710770798,0.138475854986426,0.139460582540419,15.4678985161323,1.04252641502967,1.1168746554564,0.0231656475522125,0.0446432728734852,0.0791121805035619,0.390974373110819,0.000244492502394393,0.00561934587535237,NaN,NaN,NaN,NaN,1.79698325918466,-123.928221238646,1.8562246756855,stable,stable,1,0.495978323580024,0.171001878356271,0.104753188848288,0.971450453527217,0.964839030887306
17,1.82513776796835,3,-0.98425774952662,-1.50734366072203,1.82513776796835,-0.00482958043169399,0.00412651855437309,0.0063524013196418,-0.0562539271265775,-0.125724774392114,0.142891036129874,0.0092151663576973,0.178817419402823,0.181150018778255,15.4679699425525,0.801558573704201,0.803693988277371,0.170620326109959,0.240250090822322,0.112490585245394,0.407485184893607,0.159455469648979,0.0362869282564356,NaN,NaN,NaN,NaN,1.90606506718967,-122.683382350962,2.06473233110615,stable,stable,1,0.522933408547212,0.265508609115721,0.243369509729905,0.902077138243737,0.350004184335381
18,1.7661769858113,2.80144500732422,-0.990893224527546,-1.43334475556493,1.7661769858113,-0.00767935809846896,-0.00928526392497556,0.012049426001307,-0.0574973911803882,-0.1141884017486,0.133033681289909,0.00858185169323351,0.177358570493226,0.179666852684094,15.38211127175,1.07452134819461,1.03441840566843,0.171922632397049,0.240277187410556,0.141599811655845,0.507141111755695,0.159420528506504,0.0376845454129135,NaN,NaN,NaN,NaN,1.87952489310621,-124.36494621675,1.98432989563824,stable,stable,1,0.5069139000865,0.235144366273979,0.225643659048741,0.897468442878266,0.33706675037518
19,2.62278666814168,3,-0.771934267116178,-2.47312468012453,2.62278666814168,0.0057805745931579,0.00322327103868701,0.00661849822965157,-0.0400991333163173,-0.318277672067031,0.322744891673727,0.0208343189996008,0.193328213264323,0.195876812815342,15.4455056644708,1.82793554083062,1.7933071931996,0.0103473922147096,0.0499109607414876,0.119613617086332,0.408786470122822,0.000431752021992653,0.00433034060673393,NaN,NaN,NaN,NaN,3,-106.031594526481,2.38765877210691,stable,stable,1,0.738585140734184,0.0860863910102241,0.0534183937052264,0.966373682410979,0.346838392406075
20,1.84867894119687,2.85907340049744,-0.96853456736316,-1.5453585101079,1.84867894119687,-0.00453861952162389,-0.0043469575669213,0.0062845132866977,-0.0561293065732546,-0.132133879676029,0.148648634466623,0.00958707261372696,0.199462256119241,0.202139997413737,15.4322702903056,0.817387789170653,0.851989135659329,0.171631242732748,0.240245835386312,0.104432755288374,0.452261732605238,0.156616212688704,0.0425067371270571,NaN,NaN,NaN,NaN,1.95533603544456,-121.682915799118,2.29906247658869,stable,stable,1,0.533409050468578,0.228490914111856,0.222158749425468,0.901067845652819,0.353585442094056
21,1.93652756775127,2.60484576225281,-1.03379055922465,-1.62065475070172,1.93652756775127,0.00804178941021733,0.00444003911599288,0.00918609407037782,-0.0581239971126016,-0.138784848365589,0.153323785738274,0.0098906015506701,0.12226037296259,0.124978480308745,15.4252476254199,1.11142412247161,0.911419587252903,0.170554915149267,0.240249139990807,0.158912423526236,0.432441387941513,0.156618836747808,0.0428165459275666,NaN,NaN,NaN,NaN,2.01006102178809,-122.843348050567,2.38594586902529,stable,stable,1,0.541403047462087,0.152055711009082,0.176411451557934,0.898828770420388,0.329372256210562
22,2.62253176410993,3,-0.758304749143605,-2.47532371772989,2.62253176410993,0.00684057480237456,0.00269561163800131,0.00735253600669931,-0.0394617710304213,-0.318792529027443,0.323224847585781,0.0208579662668544,0.199604524371579,0.202170331335027,15.4430053325988,1.66687557139655,1.20062632265441,0.0324367986882589,0.0487803121201197,0.127949679764376,0.432829179618266,0.0092890933434569,0.00825472228581153,NaN,NaN,NaN,NaN,3,-105.373889448931,1.5,stable,stable,1,0.739775870029653,0.0862783180098274,0.0588971939311623,0.961251228631184,0.343133475660278
23,1.64853236984324,2.71609425544739,-0.786345495964514,-1.42250130750362,1.64853236984324,-0.00291876596554743,-0.0124890436504767,0.0128255762469041,-0.0373506572328069,-0.112113986116323,0.12150660438112,0.00783703468068478,0.173925641709236,0.17599149355029,15.4663589413328,0.897999108446055,0.813206662633286,0.171091667258874,0.24023190953364,0.160912060481789,0.398739157523974,0.159454145897003,0.0337104371289957,NaN,NaN,NaN,NaN,1.75191981509009,-118.497538474994,2.11268081948751,stable,stable,1,0.474806930668254,0.2425527799062,0.228658518005457,0.901008978169225,0.328483528674761
24,2.67890319706481,3,-0.626133934629172,-2.57055252938543,2.67890319706481,-0.0256009097928889,-0.00566349136738436,0.0262198725529335,-0.0267034896822634,-0.339273670900235,0.341435630046982,0.0220243073465486,0.196322259239495,0.198415670712451,15.4551855702925,1.15030430047667,0.833465104002037,0.0580710951131513,0.240351184072888,0.0854402235626335,0.447277679179831,0.00185157484924668,0.00978986349356001,NaN,NaN,NaN,NaN,3,-102.185830974197,1.75299349378636,unstable,unstable,0,0.75405732002644,0.0770537572951219,0.0506151268935884,0.955377692836806,0.362026567305496
25,1.72723063274666,2.46070408821106,-0.913574166225951,-1.45256812590702,1.72723063274666,-0.00449454294562293,-0.0165582365927572,0.0171573924403382,-0.0457386508102731,-0.111365694785291,0.122350225661017,0.00789053158366909,0.102689414579371,0.104963163784975,15.4666969263452,0.673129631135254,0.861828759795122,0.171551578324394,0.240186944397327,0.132401460004672,0.418433446142693,0.159383117549783,0.0345256716776634,NaN,NaN,NaN,NaN,1.79680657025774,-122.144595008979,2.18672140786237,stable,stable,1,0.481587468156105,0.168177049426885,0.184297960490337,0.902163823480493,0.34115490666459
26,1.84359531919161,2.88749098777771,-1.03108337836064,-1.49866833490452,1.84359531919161,0.0042816837953858,0.00161507775156635,0.00457616567305795,-0.0618198822989534,-0.122690365315834,0.142586491028522,0.00920931734102478,0.191364095220788,0.192398338276697,15.3937041595547,2.34405383173107,1.83236146877445,0.0142661238372389,0.0735243722023645,0.129080625696051,0.508991156784343,0.000221784918448053,0.00489208875907481,NaN,NaN,NaN,NaN,1.89015622586425,-123.159855511628,2.22692611541599,stable,stable,1,0.530105086106437,0.235715489138599,0.143306805924961,0.960052246434551,0.942630833023977
27,1.71272273858388,2.41122555732727,-0.797715214409254,-1.50265414531026,1.71272273858388,7.90881994636969e-05,0.00409176339879899,0.00409252766087726,-0.0353318450308846,-0.119588559545447,0.126151358193864,0.00813820716028098,0.114413642235574,0.116639830059561,15.3788785810776,0.951987629264296,1.06771629249419,0.171990115003503,0.240202957585129,0.15981176259655,0.46622150530303,0.159393559043033,0.0364943591089066,NaN,NaN,NaN,NaN,1.77620387229689,-117.832865156267,1.73686552741182,stable,stable,1,0.480054029634281,0.15791343095509,0.17886031640956,0.89813584025586,0.328972549957089
28,1.69462009270986,2.51628494262695,-0.93727821760965,-1.39464619607303,1.69462009270986,0.00137451402669637,-0.000231650164797868,0.00139389763197874,-0.0486089504124117,-0.104713529751768,0.118142534046466,0.00762101174252394,0.134291465037623,0.136375034651058,15.4093596896029,0.966328861228489,1.03690884604837,0.171569497768945,0.240202105831238,0.141546005162512,0.474840400662783,0.156595105686468,0.0419509279079103,NaN,NaN,NaN,NaN,1.77693740749085,-123.63065316624,1.5886912306821,stable,stable,1,0.479173698319507,0.185130139130542,0.19593079110347,0.898475526272638,0.337090664372217
29,2.62159433166186,3,-0.5173458288055,-2.53544613552437,2.62159433166186,0.00536697159648839,0.00222065977223128,0.00580824534102335,-0.0234671551615409,-0.334444397890219,0.336148894431817,0.0217084440162579,0.200529634829886,0.203194784367572,15.4218226019956,2.05958451699714,2.07014662274892,0.0110291675566058,0.047371304573928,0.137849397718205,0.378249598471687,0.0002290957504232,0.00732445359920158,NaN,NaN,NaN,NaN,3,-100.208461528465,2.35937813479978,stable,stable,1,0.73973077865001,0.0862061203552691,0.0544889302191198,0.962037528695121,0.338733601014131
30,1.7864523101736,2.79544925689697,-0.884093949925587,-1.5304852833335,1.7864523101736,0.00739200442010036,0.00063214092050073,0.00741898453227628,-0.0452085741638271,-0.129456398003183,0.140210510195568,0.00904408007767689,0.170073566036234,0.172427734745983,15.457792105973,0.976027831807609,0.875667150746514,0.171827557523291,0.240297510169184,0.173437678724903,0.389494960339237,0.156633879022325,0.0431234049751042,NaN,NaN,NaN,NaN,1.90894849737311,-119.745808657761,1.6205175830094,stable,stable,1,0.510872829662156,0.22838446017701,0.222326971622226,0.899537189232572,0.322916587233376
31,1.83932512601217,2.61994123458862,-0.893778737781375,-1.5892279807474,1.83932512601217,0.00258242874175994,0.00810659183392004,0.00850798268498749,-0.0451898997656125,-0.135423563388687,0.145267374383989,0.00936993296736077,0.142307085352961,0.144778028981645,15.4514009213493,0.894690185617376,0.922736050722278,0.170717783502545,0.240248258962094,0.147816139193373,0.402839933906116,0.156607864960381,0.0411359657317878,NaN,NaN,NaN,NaN,1.95935225919259,-119.13516242978,2.18643932494475,stable,stable,1,0.51944230606624,0.177198421255284,0.190881081284495,0.900361330677488,0.334303938136279
32,2.62620592276255,3,-0.647223023046246,-2.50888449113285,2.62620592276255,0.00474739023024984,0.00383148019423265,0.00610065197147557,-0.0319622953675909,-0.327363814881185,0.3303695971308,0.0213237115989479,0.202228182545082,0.204806315324803,15.4435155031616,1.71503854383324,1.56600822412169,0.0154539372103366,0.0494842235271494,0.114796220969706,0.449445052663108,0.000191491505617287,0.00691794199725495,NaN,NaN,NaN,NaN,3,-103.01941117063,2.09784688492636,stable,stable,1,0.741282842468308,0.0852221202398628,0.0537339947514767,0.966493378218043,0.348979457346797
33,1.8274584752542,2.85806441307068,-0.768762239218159,-1.63225573687739,1.8274584752542,-4.45938124130554e-05,0.0119118719196948,0.01191195539109,-0.0363760750778589,-0.146458221558724,0.153672445519168,0.00991223465387886,0.178177109334357,0.180804774237431,15.4470978947221,1.04513349588431,0.875458547676539,0.172092770166408,0.240301501335126,0.168895285551418,0.41653803861557,0.156615538534215,0.0414590683850144,NaN,NaN,NaN,NaN,1.93692079365451,-115.089103932968,1.57884399253817,stable,stable,1,0.523483214915273,0.234070194497074,0.225125047580729,0.898863248860246,0.324935428643814
34,2.58772440465586,3,-0.537199661318417,-2.49794892851913,2.58772440465586,-0.0112640639646992,0.0213240251690676,0.0241162432068485,-0.0258755621391462,-0.338594952797559,0.340609681105321,0.0219848831412424,0.199858712757231,0.201861922226767,15.4120675621629,1.75576581048024,1.31702400742778,0.0581630525150555,0.240479975164962,0.123849447863546,0.400458883323776,0.00196120435960149,0.00934843659613449,NaN,NaN,NaN,NaN,3,-101.157933097739,2.36873177888534,unstable,unstable,0,0.730432225686917,0.0971833202070196,0.0625810699957603,0.946775125173195,0.344955800949535
35,1.78667010907774,2.54772877693176,-0.774140104265582,-1.59224303727423,1.78667010907774,0.00594120522301352,0.0153582656093059,0.0164673690074629,-0.0344290168236604,-0.135743590421294,0.141902587810374,0.00915324146483084,0.133462147989825,0.135902272433067,15.4421761304909,1.01110889153834,0.910269735287153,0.172638013228254,0.24023768888995,0.153372469760645,0.414596452472571,0.159482211629221,0.0375472911632548,NaN,NaN,NaN,NaN,1.86137587595629,-115.841095627455,1.8021493862685,stable,stable,1,0.503625816907343,0.174257217918524,0.189088874120437,0.898584447032244,0.331834457884158
36,1.95979359149933,2.71123814582825,-0.886248475698948,-1.7325158627823,1.95979359149933,0.00379457356329348,0.00301394962038469,0.00484589319336103,-0.0437726907430502,-0.157277559202593,0.165054021921261,0.010646357105835,0.1381954002937,0.139477954802447,15.4756917978282,1.05779909497575,0.960279255288955,0.0286789060235114,0.0466790260195333,0.0802413280597953,0.375398953861416,0.0062649164801261,0.00446805110663939,NaN,NaN,NaN,NaN,2.00134863438598,-116.022448666907,1.61395898867495,stable,stable,1,0.55050721536031,0.169963438476123,0.106387216267134,0.969804217093307,0.36433718752898
37,1.7833861068443,2.57857799530029,-0.782549843466937,-1.58441871856042,1.7833861068443,0.00617074506666081,0.00344991103409396,0.00706965210041357,-0.0352073023446103,-0.134831184634354,0.141250218118145,0.00911082175933669,0.140579901368628,0.14299884552451,15.4090185914558,0.987849801948188,0.851859041042729,0.172655356001062,0.240277465872443,0.13705999627863,0.476639005642261,0.159439020736261,0.0357919482444761,NaN,NaN,NaN,NaN,1.84847057739295,-116.145839673518,1.5407810150313,stable,stable,1,0.504169397596716,0.180214277787674,0.192005607573581,0.899217466804541,0.339084446098387
38,1.89612432585822,2.96430611610413,-0.732496238058537,-1.72090713791677,1.89612432585822,-0.00158012402731463,0.00258618699700282,0.00303070208452818,-0.0341037996275768,-0.16202117325372,0.168117893703156,0.010845320165505,0.183755571961221,0.186602200246469,15.3897615044765,1.00081410215478,1.09773092822272,0.171037169829864,0.240295907503262,0.143665076411651,0.499100717663038,0.156588236576266,0.0433562949850761,NaN,NaN,NaN,NaN,1.9993932608471,-112.620106358339,2.08219000315886,stable,stable,1,0.542953593611486,0.240896531520825,0.229898616173287,0.897992846989245,0.336148854928155
39,2.63081869959831,3,-0.626549256035724,-2.52263084781929,2.63081869959831,0.00500147505040812,0.0032103118986354,0.0059431351294056,-0.0293087679910867,-0.330740399405919,0.333217542551973,0.0214989759090541,0.196807364165359,0.199418923581254,15.4298142759253,1.39719417533745,1.08706654956141,0.0294390955295118,0.0510404723596492,0.104589357767218,0.437896884545669,0.00284919877708324,0.00615542867836143,NaN,NaN,NaN,NaN,2.9987372183553,-102.731971335258,1.641933217398,stable,stable,1,0.741435437942467,0.0841553673641041,0.0539978686872774,0.965761260825324,0.353515840992348
40,1.85029736922605,2.77697682380676,-0.253924448604636,-1.81505521949654,1.85029736922605,0.00126255871143425,-0.0147474687060312,0.0148014150585405,-0.00704865960920886,-0.180437115419737,0.180764201806379,0.0116585658539301,0.153818549357575,0.157115381870899,15.4660415614016,1.06562947559476,0.516873466449078,0.169138248476154,0.240274930873376,0.118468889951879,0.331908913569901,0.15576748577567,0.0421175179546913,NaN,NaN,NaN,NaN,1.96262077332345,-97.9255988407311,2.41748038506318,stable,stable,1,0.524835708167794,0.211216470041392,0.211275336777344,0.902996924074436,0.347347160021387
41,1.88321309531177,2.64358615875244,-0.225261366429892,-1.85143686416543,1.88321309531177,0.00343964555954266,-0.0201419843639463,0.0204335678649799,-0.00615117571154177,-0.181723869871125,0.182009933488705,0.0117418266664205,0.149296801062042,0.152759867856505,15.3876109007065,1.11457308595171,0.870503575112036,0.172637752323331,0.240264951001221,0.144831181709187,0.44659362761576,0.159410687647848,0.0377459586922741,NaN,NaN,NaN,NaN,1.94919332297993,-97.076725643542,1.51176910466964,stable,stable,1,0.532742132321105,0.174830093382732,0.189473053700621,0.898084092929976,0.335630585907028
42,2.61213595072428,3,-0.625512886416484,-2.50436002437245,2.61213595072428,0.00581156870174743,0.00633743170065978,0.00859868427933354,-0.0292323503526866,-0.326462776251191,0.328927786165348,0.0212228813429577,0.198074245767423,0.200674135031886,15.4593260810697,1.41697939413839,1.23564245519664,0.0163369641951238,0.0460713967804624,0.0944592744535449,0.368594204083206,0.000150490082011493,0.0055492702335377,NaN,NaN,NaN,NaN,2.97766096785849,-102.83550377438,2.14715953902446,stable,stable,1,0.736704413866186,0.0888458365382472,0.0553923028524015,0.970989489086234,0.358018100242869
43,1.76584450845365,2.79106044769287,-0.218415458658234,-1.72788070219694,1.76584450845365,-0.00279545561732647,0.00499814115929701,0.00572677807817808,-0.00692770833001362,-0.163100851960632,0.163527388619391,0.0105482020745314,0.177222436563558,0.180223503982063,15.4493904930189,1.06655745529622,0.730955831504671,0.171597717306363,0.240257607161229,0.149189511431448,0.374148081419126,0.15665247628952,0.0405964245753631,NaN,NaN,NaN,NaN,1.87761184680711,-96.9149867627548,2.11520529404427,stable,stable,1,0.506936569717386,0.231723495643157,0.223419756390459,0.900077822664811,0.333693550474912
44,2.55602338179654,3,-0.642207087789254,-2.43580125984621,2.55602338179654,-0.0335574989529558,-0.0107153447641778,0.0352267561576825,-0.027471568885218,-0.30717749428527,0.309701679270005,0.0199835644978916,0.219601703389754,0.221417745409599,15.4466889353308,1.52201803915864,1.1123952267934,0.0580448996285297,0.240364750152892,0.108596600622705,0.386161552647997,0.00188824094902112,0.00898332133513325,NaN,NaN,NaN,NaN,2.70268226585959,-102.84402520654,1.83432514303464,unstable,unstable,0,0.725889784227663,0.106352977724687,0.0679176671380622,0.950278588810398,0.351734844167687
45,1.68156953623695,2.41117000579834,-0.197214606207321,-1.65933649311703,1.68156953623695,-0.0048876322123678,-0.00564080683934846,0.00746375578661412,-0.00401748409049835,-0.145420054545766,0.145554032493899,0.00938925079599223,0.123259143017786,0.125964212651543,15.3950977872759,1.05434773381597,0.809604066021111,0.171088519328344,0.240191219140577,0.120930968361066,0.498199743985722,0.159390950063343,0.0359025376945118,NaN,NaN,NaN,NaN,1.74484723470437,-96.8322370152764,2.47005640392621,stable,stable,1,0.473611385526829,0.165528460878858,0.183212967030239,0.899810404765679,0.346252902950637
46,1.68540830949942,2.71651721000671,-0.235254695245284,-1.64563797498033,1.68540830949942,0.00379648996940989,0.00556626858002169,0.00673770598889314,-0.00707807962212053,-0.146174875407071,0.146587532145567,0.00947430585325622,0.178741884542554,0.179923134701092,15.327592184854,2.65666359665073,2.48322866502539,0.0121250174071733,0.0666762827836292,0.147142123446775,0.438886037210816,9.66440784330185e-09,0.00652968670042498,NaN,NaN,NaN,NaN,1.71876069037497,-96.5690723186371,2.38374642399175,stable,stable,1,0.485426842806731,0.233234748712104,0.142315285049982,0.953552623526101,0.934603500690322
47,1.71712745781298,2.60006022453308,-0.117654955463881,-1.69066282311839,1.71712745781298,-0.00138319704958271,0.00410222450903425,0.0043291431023351,-0.0034327168245022,-0.15607316328739,0.156256671060917,0.0100776330504756,0.176337798724503,0.179300584526461,15.4676976692486,0.955014133362135,0.581806818154731,0.172230092285746,0.240227245768517,0.118203514202496,0.330732141501469,0.159453346090851,0.0349539340531162,NaN,NaN,NaN,NaN,1.8330973949862,-93.5355183886098,2.03184911222889,stable,stable,1,0.493760772322087,0.199453548747451,0.203250804540487,0.901809932095209,0.347465104798891
48,1.67783177517079,2.43687701225281,-0.182957903346889,-1.65181996983634,1.67783177517079,-0.000464163783908229,-0.00631782225480884,0.00633485012148274,-0.00446014445230981,-0.145148988922773,0.145350474189884,0.00937691473689501,0.130695915429101,0.133411566205392,15.4335064808657,1.0924301538912,0.809816660813507,0.172473308567845,0.240185243041022,0.13502157102054,0.384213610786342,0.159467267020249,0.0361731075740514,NaN,NaN,NaN,NaN,1.76093856199151,-95.8152911333806,1.91679474509336,stable,stable,1,0.474104119953288,0.171946567532394,0.187196138716979,0.898817120743398,0.33999041287976
49,2.62446588039398,3,-0.692673451267617,-2.49634873436374,2.62446588039398,0.0100080847827184,0.00345379840012811,0.0105872793675621,-0.0346337697298679,-0.324241235201043,0.327713388253389,0.0211477730364313,0.200903467632323,0.203534691178634,15.4334663147001,1.54965288897935,1.34761590134397,0.0236096893369902,0.052222169086143,0.0980618928575099,0.382454261850815,0.000105861801069278,0.00295506207224512,NaN,NaN,NaN,NaN,3,-103.690253195533,1.79727944495359,stable,stable,1,0.740564506340789,0.0864361781287405,0.0529833245928793,0.965430900550393,0.356416936507773
50,1.65644320382012,2.37982082366943,-0.13645447001352,-1.63907239325666,1.65644320382012,-5.17290205907965e-05,-0.0170912706547645,0.0170913489369911,-0.00267574402276222,-0.142387893696482,0.142463023564121,0.00918947461024188,0.124713866565957,0.127354905481861,15.451713635786,1.05073348286648,0.710004800359698,0.171767914860982,0.240199493826537,0.166189140879433,0.365967840541547,0.159473716290307,0.0372128419653305,NaN,NaN,NaN,NaN,1.72627812567413,-94.411640590645,2.06802060987547,stable,stable,1,0.467189168781738,0.165893378437877,0.18394517683571,0.900281670344161,0.326138159609141
51,1.56295707932225,2.36788082122803,-0.0983588917569481,-1.54607568816876,1.56295707932225,0.00510443913101279,-0.00140809847436965,0.00529509585897524,-0.00215386068298957,-0.127800966312055,0.127883518759895,0.00825004285020411,0.127243033419595,0.129608739307038,15.3834432615199,1.06912214882702,0.872567856945344,0.173030820117743,0.240171116538139,0.12974901638945,0.474816477041026,0.159425344699782,0.0370714975554492,NaN,NaN,NaN,NaN,1.64198518080473,-93.7945426045898,1.94927337880387,stable,stable,1,0.442710302347341,0.182078609502945,0.193583419022844,0.898228454181489,0.342333770493578
52,2.62020959417025,3,-0.640959854971017,-2.50484928025452,2.62020959417025,0.00513302050786047,0.00470966012942639,0.00696626141261041,-0.0313495751088914,-0.326739060669698,0.32965582521994,0.02127489419898,0.197904514911514,0.200503317434268,15.4465236264436,1.5883851860616,1.52920848655966,0.0225688567550767,0.0495202299845358,0.109710254208847,0.380760619895981,0.000108801735381766,0.00554712781312313,NaN,NaN,NaN,NaN,3,-102.899260755177,1.85180743065432,stable,stable,1,0.738823221932254,0.0867299892373384,0.0541034872558296,0.964220192766152,0.35123988701829
53,1.65832145125778,2.54222726821899,-0.124425080925989,-1.62946098846969,1.65832145125778,0.00597792478166063,0.0001326825610149,0.00597939707304923,-0.00359434499301104,-0.145154183196526,0.145362908730234,0.00937662070032211,0.170702217828216,0.173387959341671,15.3919856440108,1.04730319489082,0.812632749909609,0.172901359287108,0.240213814997241,0.117332085806257,0.450371046631895,0.159442573081839,0.0358543050822594,NaN,NaN,NaN,NaN,1.76767167051157,-93.7767495596924,1.97385744170917,stable,stable,1,0.476896645537075,0.199975031613,0.203886313902772,0.898935537933014,0.34785240630833
54,2.66583693622056,3,-0.55614894617734,-2.57265404035817,2.66583693622056,-0.0225670701515353,-0.00676253991730349,0.0235585356369499,-0.0228756392796045,-0.339219528325095,0.340889421643921,0.0219930177948054,0.203849382208103,0.206006499609119,15.4530633029025,1.3736931234942,0.977099665213407,0.0576349157240073,0.240388397677649,0.10120949665216,0.409613829611793,0.00187282106121441,0.0114997570320015,NaN,NaN,NaN,NaN,3,-101.106544404973,1.66813299933797,unstable,unstable,0,0.752091149580641,0.0795057542171473,0.0527175472762024,0.952712027369579,0.355018001487929
55,1.62606543477844,2.43793964385986,-0.121972798492199,-1.60607213931218,1.62606543477844,0.000440391447886392,-0.00240569039584713,0.00244566778366208,-0.00251309904261943,-0.137990898385497,0.138088789117982,0.00890915517328497,0.133473264301005,0.135990603716542,15.3813227527571,1.1072248517921,0.930139722805535,0.171157367105548,0.240179340485395,0.141620761931541,0.486464475037399,0.159455985958215,0.0372221741783422,NaN,NaN,NaN,NaN,1.6954412846166,-94.4207914550518,2.4081024515265,stable,stable,1,0.460815570017558,0.183120069470325,0.194276704839587,0.89841345193253,0.337057439141537
56,1.7048729232947,2.46483731269836,-0.0968015305267207,-1.68709556387915,1.7048729232947,0.00141205112053659,0.00358467280441516,0.00385276102058281,-0.0020327680968844,-0.150280068107319,0.150350800194303,0.00971665445397921,0.138989601805028,0.140202466416237,15.260078366755,2.71662228071776,1.72879019050894,0.0250384496241424,0.071857057086172,0.1885088205342,0.596937211728454,5.71969232513201e-12,0.0168120002491763,NaN,NaN,NaN,NaN,1.73280982852964,-92.1431804697514,1.97653494178575,stable,stable,1,0.482673272828502,0.171698327136264,0.109132450920365,0.952552534342576,0.9162183019848
57,1.57977243352819,2.19921255111694,-0.161227127105519,-1.56116053470956,1.57977243352819,0.00311411725975199,-0.00294768305391836,0.00428795542115852,-0.00302284970719469,-0.129576566451071,0.129666955653682,0.00836382713560795,0.110586186732511,0.112976339328754,15.4071026748666,1.00322121634823,0.727836642377567,0.171977392316703,0.240180286746595,0.125235598892945,0.405090809663264,0.156570387900651,0.0428387695302462,NaN,NaN,NaN,NaN,1.65239533729994,-95.8334835366937,1.54305784743689,stable,stable,1,0.443867916806602,0.140160151618014,0.169260664412399,0.90041013495166,0.344339733825358
58,1.60257638118885,2.29766297340393,-0.0873187102902515,-1.58891927392998,1.60257638118885,-0.00313478020462568,-0.00311473057927861,0.0044190941959644,-0.00167480716517668,-0.133082944389063,0.133137375107712,0.00858872603883051,0.11698984007033,0.119453152137048,15.3976072190175,1.0265740058649,0.809985307139499,0.172063069906819,0.24015280221694,0.128168033646224,0.416062453951692,0.159436432219881,0.0385523419255419,NaN,NaN,NaN,NaN,1.68060545220575,-92.4282145747537,1.92126321744024,stable,stable,1,0.45124433207777,0.157204650517653,0.179202460280231,0.899538356158699,0.343036429490567
59,2.53535492420197,3,-0.494975586427796,-2.45510977514168,2.53535492420197,0.00525625033171019,0.00451534798276858,0.00692939643512303,-0.0213751937783322,-0.315905911386648,0.317378643732707,0.0205143454907513,0.209470860526643,0.211973995085776,15.2674401421038,2.75094427839754,1.93471311928758,0.0239689763241735,0.0678487857388059,0.170098683653957,0.580647076740118,3.41673284818622e-09,0.00152567076002559,NaN,NaN,NaN,NaN,2.78982386220964,-100.41262924442,1.97673232557408,stable,stable,1,0.718489445471013,0.105815531400997,0.0640441097264282,0.951199632284673,0.324400585042686
60,1.64666431126771,2.42106127738953,-0.0503823696691049,-1.63604190447118,1.64666431126771,0.0002341690435087,-0.00932767045914345,0.00933060937641884,-0.000838070262948707,-0.142600738976886,0.142625546984425,0.00920137328234659,0.131495535981024,0.134198575605249,15.3874303101507,1.11196890115894,0.828043765504995,0.171944094971432,0.240190297756515,0.123518011264819,0.43364799299652,0.156630334215299,0.0414520502118547,NaN,NaN,NaN,NaN,1.72864210057146,-91.9462754292346,1.99334026309556,stable,stable,1,0.465950198125773,0.175949929096418,0.190256912135628,0.898784995847639,0.345103106104525
61,1.58536997238795,2.1988799571991,-0.1693552872013,-1.56088399783449,1.58536997238795,-0.00482191258846183,-0.0066187140165462,0.00818890812279585,-0.00392127709216666,-0.130214462686154,0.130382797013291,0.00841006308092555,0.138696267448203,0.141079120941867,15.4479320976023,0.990225364120043,0.641635564880133,0.172280218451993,0.240199706830038,0.153537863176256,0.307308638204566,0.159383272081129,0.0358110485267068,NaN,NaN,NaN,NaN,1.6541677253945,-95.777639022521,1.91018635051907,stable,stable,1,0.450981150158493,0.139541046405021,0.167583837121104,0.901038126331859,0.331760949699442
62,2.61677885572116,3,-0.551636240883215,-2.52371027162625,2.61677885572116,0.00843274669812652,0.002562840440464,0.00881358996085258,-0.0253468160184297,-0.331630046840566,0.333567089076155,0.0215286294332044,0.200048657199064,0.202622128183026,15.4349707480818,1.58342730484895,1.63883393338748,0.0197087270662279,0.052270058490148,0.106583636657509,0.385831619341653,0.000564669376813213,0.00451697468483524,NaN,NaN,NaN,NaN,2.96888331606625,-100.576107342626,2.0491811366564,stable,stable,1,0.73833212049558,0.0878405822888963,0.0545978497898413,0.964827869595028,0.352629494818885
63,1.53225689729055,2.55934929847717,-0.0541323927658725,-1.50830303072646,1.53225689729055,0.00124052507316446,-0.00508508358707941,0.00523421221815987,-0.00152758230878508,-0.125139169096218,0.125282426631976,0.00808000592513927,0.167737562127129,0.170031970017128,15.4092167381413,0.836593501314996,0.758024200939854,0.172257799466914,0.24019987308993,0.109692973169817,0.449636840188978,0.159469085105912,0.0344973513798357,NaN,NaN,NaN,NaN,1.60300708299886,-92.1234906695166,2.07009064552921,stable,stable,1,0.442608233280905,0.23205539584032,0.222652877851002,0.901341961177398,0.351247567480081
64,2.6769923345886,3,-0.638041165386288,-2.56592495461488,2.6769923345886,-0.0249791458326461,-0.00957737462336111,0.0267522677768596,-0.0285017572940568,-0.337040237699027,0.339449103956181,0.0219131888827055,0.201716292597763,0.203748725971455,15.3882131013295,1.71189852998735,1.28191217125309,0.0584649971115408,0.240255160741816,0.139160301990169,0.428268006196144,0.00189129106923542,0.0114453860513608,NaN,NaN,NaN,NaN,3,-102.201792877698,1.90054061171745,unstable,unstable,0,0.754614367751251,0.0775813071433225,0.0515513166586737,0.94724470307734,0.338150976893258
65,1.50031603697468,2.17555522918701,-0.122548741905648,-1.48624914578894,1.50031603697468,-0.0028824675785188,0.00999235840480213,0.01039980027843,-0.001946538450513,-0.116936601857857,0.116987973143632,0.00754770941279069,0.0972886485015915,0.0994340564275686,15.3704653285275,1.08016045897277,0.92249195363871,0.171766732270002,0.240141560047893,0.14086325493734,0.506819115689944,0.159435405210307,0.0375956749023371,NaN,NaN,NaN,NaN,1.55228808798252,-94.2268777224065,2.42453119572822,stable,stable,1,0.419971087812096,0.15383544829882,0.176832603582702,0.898381507765909,0.337394108916738
66,1.56776723523935,2.22448229789734,-0.124178419634489,-1.55276178815842,1.56776723523935,0.00154679742907916,0.00631891997312409,0.00650548475621551,-0.00211528209667826,-0.126440686471102,0.126494873953721,0.00817191612947495,0.10817907807369,0.109190782238426,15.3418344681962,2.36784915158955,1.66755334400522,0.0219542541482056,0.0736182369787247,0.171483271020413,0.432254720738997,0.000180175912968092,0.00381755528332493,NaN,NaN,NaN,NaN,1.60696450398557,-93.5145725727472,1.91084232276044,stable,stable,1,0.439909419178178,0.148953561303354,0.0908404168867631,0.957316139031938,0.323785212879816
67,1.60389981725637,2.47379875183105,-0.0852188320774083,-1.58317410315272,1.60389981725637,-0.00601601504012164,-0.00686967899588617,0.00913153472694976,-0.0022529430105454,-0.136413337079483,0.136524353623033,0.00880427486153692,0.149398676178347,0.151707802047304,15.4697323513664,0.807110601358662,0.568810022875069,0.170919276562928,0.240197107621356,0.138131748740776,0.336929231213039,0.156602010620825,0.0402631910718344,NaN,NaN,NaN,NaN,1.70472744872138,-93.0615211949791,2.23137893349025,stable,stable,1,0.458048178344492,0.197401374979246,0.202682878986561,0.903729556813843,0.338608111670766
68,1.55298460898576,2.40412878990173,-0.120108045754329,-1.52731588395505,1.55298460898576,0.00301083964041415,-0.00204457612160426,0.00363942946865625,-0.00291454772870949,-0.127579033599133,0.127743961105123,0.00823818695740468,0.156849545777892,0.159212954841239,15.4769450129059,0.792344265413128,0.560825991421624,0.172451532581221,0.240201551757713,0.113052999591639,0.377670370136014,0.159412078373892,0.0343258270540458,NaN,NaN,NaN,NaN,1.6346567991892,-94.1375227104005,1.5129811799387,stable,stable,1,0.445971820031117,0.192174669442014,0.198636733204571,0.903142181691402,0.349754222403716
69,2.61701821009318,3,-0.390899175847219,-2.55559163812418,2.61701821009318,0.00653198496882448,0.0044020765833053,0.00787687157939202,-0.0162677475127415,-0.339701134955216,0.340566119144718,0.0219761671002985,0.192610515452634,0.195340603569475,15.446956568618,1.58171686612326,1.28718987702211,0.0207339745724238,0.0526251818777563,0.0987136519339196,0.364529518981343,0.000192654599502321,0.0067310990146089,NaN,NaN,NaN,NaN,2.97762147861884,-97.4745863886534,1.96355928214556,stable,stable,1,0.73693964340541,0.0876149958519229,0.0551022941465479,0.967091602589074,0.356127265807147
70,1.67244308877874,2.32213163375854,-0.0539950927390836,-1.65670899706302,1.67244308877874,-0.00331084178759291,0.000780369162145936,0.00340156572356022,-0.00114056707795906,-0.146757228640471,0.146815071999051,0.00947061999021867,0.132669377141548,0.13545926153276,15.38167865659,1.03417503015206,0.819861431001355,0.171247499080995,0.240222672492785,0.118593371456817,0.429976145827428,0.156614066174771,0.039483394808883,NaN,NaN,NaN,NaN,1.74106956136438,-91.9626622500687,1.62952867128204,stable,stable,1,0.473076675980883,0.146803543003108,0.172045975547418,0.899808821121868,0.347291834908081
71,1.60706018612665,2.21710538864136,-0.156274280175417,-1.58894919025987,1.60706018612665,-0.00586945071487856,-0.0100991506814081,0.0116808944940092,-0.00285442024188366,-0.133173371303994,0.133255507583778,0.00859646746721576,0.116419610773453,0.11884225812568,15.395429172684,1.00565963722714,0.888373811055173,0.172008134942639,0.240187684516038,0.122611173292491,0.429679330949879,0.159482782092057,0.0343747471057732,NaN,NaN,NaN,NaN,1.67774962146967,-95.9395937551425,2.40502580274994,stable,stable,1,0.452317834592243,0.13940166788971,0.167022145257648,0.899114241149319,0.345506145203337
72,2.63171585321426,3,-0.609657183769257,-2.52466335336428,2.63171585321426,0.00798106969186045,0.00409396850079531,0.00896984121999033,-0.0291205568389026,-0.331320739775861,0.333819861438463,0.0215444313841167,0.197163679539394,0.199775249202307,15.4030816099956,1.6564597459151,1.27887016014561,0.0334443334588893,0.0655228993966777,0.122981780265435,0.425349054471711,0.00877410272623728,0.00536924817190343,NaN,NaN,NaN,NaN,3,-102.28205700878,1.5,stable,stable,1,0.741745944030932,0.0845084039171222,0.0565570974426265,0.960214526865793,0.34534143099314
73,1.63484983267608,2.53936243057251,-0.124554640349886,-1.60764795966251,1.63484983267608,0.00450802210077874,0.00186017723864432,0.00487673278130758,-0.00313230584021672,-0.140669076261682,0.140840893620844,0.00908715914020231,0.167637146177102,0.170324636981387,15.3673623700184,1.16369553315127,0.942093578772755,0.172362555323299,0.240210419521661,0.131839254364116,0.443304097836117,0.159399856545673,0.0358729565581999,NaN,NaN,NaN,NaN,1.730743683828,-94.7490683234343,1.59296363643374,stable,stable,1,0.470024882776564,0.204409402203271,0.206534733484637,0.897273236458948,0.341404775838171
74,2.67547469852615,3,-0.570285267565326,-2.58058865360266,2.67547469852615,-0.0195221283291726,-0.0125532918232654,0.023209882164732,-0.025985404280171,-0.33912765041586,0.341187502555854,0.0220123906894294,0.204764232069931,0.206808078679922,15.442566804245,1.38123280434688,0.914955686294977,0.0577996157498972,0.240261320998849,0.0894255104611986,0.372374200610331,0.00189175859229624,0.0114139248359441,NaN,NaN,NaN,NaN,3,-101.440236798872,1.89871480512576,unstable,unstable,0,0.754821535342957,0.0772733378951514,0.0513553024558284,0.953058711127151,0.360255328683912
75,1.66627067724864,2.2580771446228,-0.134209969308272,-1.64903213769643,1.66627067724864,-0.000754006817792131,-0.00441808800508555,0.00448196696796817,-0.00246318096026802,-0.143748898036093,0.143814003404391,0.00927755224190375,0.11509735035238,0.117721498048914,15.4172778927383,1.08969199024806,0.829437729592478,0.171202552241193,0.240224069954649,0.124823951085369,0.441170583675236,0.156581748180517,0.0422980076381155,NaN,NaN,NaN,NaN,1.72844746755899,-95.0560971705178,1.84072095432126,stable,stable,1,0.467883146876086,0.133978149103315,0.165359871228806,0.899319847509228,0.344522688406503
76,1.75837482611338,2.46325469017029,-0.222594173769708,-1.7325965358367,1.75837482611338,0.00362441581633027,0.00387545071419318,0.00530617642448924,-0.0046993705866508,-0.157194781514105,0.157346223932277,0.0101548527353149,0.125497018999641,0.126837541861966,15.4235670004415,1.62703230928303,1.45358034604346,0.0212676250869434,0.0685719971649189,0.109902893670346,0.440936680260417,0.000236057517187963,0.00477525571847434,NaN,NaN,NaN,NaN,1.80133462105751,-96.2777836497926,1.91678976719009,stable,stable,1,0.494267462002629,0.15957076842396,0.0975838321313593,0.965161373736106,0.351154269479846
77,1.70682511259528,2.57120728492737,-0.129340082736251,-1.69100933909326,1.70682511259528,-0.00504257035540268,0.00855230608481342,0.00992821510431369,-0.00248351175219827,-0.151372479811568,0.151438079972013,0.00976882100968813,0.119049447165671,0.12179324113301,15.3761007593874,1.08645593838343,0.720677025020133,0.170809132385734,0.240215942953065,0.135884503018684,0.417448864406949,0.156639264993306,0.0420084306876889,NaN,NaN,NaN,NaN,1.75923009576763,-93.8331549635916,2.40456831067483,stable,stable,1,0.479512011585343,0.196306161543845,0.202676941011784,0.900396531951819,0.339606887547251
78,1.76332262268773,2.50217366218567,-0.179672074688633,-1.73791423381349,1.76332262268773,0.00795425684349042,0.000221901075679341,0.00795735144502251,-0.0045584349410019,-0.161240911056822,0.161435522655862,0.0104117211516856,0.141192619471611,0.14393018064764,15.4498908897171,0.853765791825794,0.660584788934428,0.17085599442785,0.240265175843766,0.105108586424261,0.4463183408559,0.156593784246748,0.0421961304667994,NaN,NaN,NaN,NaN,1.84421771642335,-95.6415120879709,1.60659042209878,stable,stable,1,0.499005402179589,0.167700331651957,0.185561483876646,0.902673533937244,0.353285072700328
79,2.60581094622612,3,-0.401778875662077,-2.53998968534733,2.60581094622612,0.00728469256788095,0.00627905173159714,0.0096173404045304,-0.0174970616033802,-0.336218809053954,0.337257364186251,0.0217788628968536,0.204687474949073,0.20743734225712,15.4111418671615,2.16278821761735,1.78228117571826,0.0133391861442319,0.0691227612691262,0.125933618563753,0.4602813661832,0.000275374476857714,0.00706486446617293,NaN,NaN,NaN,NaN,3,-97.5958361626102,2.2409471840606,stable,stable,1,0.736370387445056,0.0904557161732869,0.0569648599844162,0.962333433123104,0.344029502860554
80,1.73737391012686,2.69556021690369,-0.198269520600437,-1.70222004621705,1.73737391012686,-0.000691464358175313,0.000656521975516766,0.000953490462963964,-0.00604800450890475,-0.15831701440065,0.158656847900657,0.0102333998715664,0.17901090629732,0.181979208217156,15.4188162216643,1.02387813159647,0.777086571314892,0.171901263588481,0.240252569953333,0.14355160262341,0.383793569372444,0.156567268019666,0.0421465447412346,NaN,NaN,NaN,NaN,1.84269174465958,-96.4089816842801,2.00728484594766,stable,stable,1,0.499695551010595,0.215766725609662,0.214371504088522,0.899898931254313,0.336199287722929
81,1.82088884777493,2.78373551368713,-0.175664980771055,-1.7953064631612,1.82088884777493,0.0084048732493972,0.00409694793292654,0.00935023404538858,-0.00460615880377574,-0.171357685407906,0.171548232939304,0.0110661530626965,0.138464090491915,0.14169550296072,15.4600318734917,0.983536365407216,0.792625683052405,0.171314488859676,0.240239509431518,0.154600493799521,0.36020803615395,0.159465175679775,0.0346929008153777,NaN,NaN,NaN,NaN,1.90149022471625,-95.3637271300002,1.70392011523417,stable,stable,1,0.513909459998792,0.218354709405234,0.214501837352875,0.900387196617979,0.331288669422435
82,2.58804941852887,3,-0.407151301658654,-2.52423700804583,2.58804941852887,0.00598094156736127,0.00494988376832698,0.00776356949811984,-0.016847087690121,-0.332520424439979,0.333464045642751,0.0215331927616943,0.200785057496679,0.203360369886376,15.4251229210373,2.15150824047084,1.84208461812754,0.0108993992246529,0.0462810465981676,0.127087843131074,0.401062936988812,0.000393745935490775,0.00555717975445115,NaN,NaN,NaN,NaN,2.91783086718893,-97.7855854258006,2.35797047026372,stable,stable,1,0.730818585584975,0.0941122019056584,0.0586631119749288,0.963172070784401,0.343516514163967
83,1.65747278796302,2.58734202384949,-0.283846055695025,-1.61131590675963,1.65747278796302,0.00665204937253519,0.00188726807605051,0.00691458904386408,-0.00855290353418946,-0.142328076796757,0.142913484201837,0.00921769171444758,0.178079653979945,0.180706262429915,15.421001566422,1.0408884421817,0.679278204220373,0.173173581009696,0.240227643024149,0.142558038065116,0.424906785417592,0.159472759465962,0.0346090485203215,NaN,NaN,NaN,NaN,1.75027764965131,-99.5200046041142,1.68962042039427,stable,stable,1,0.478133995942788,0.210488252732497,0.209754842177214,0.899897614416279,0.33664087197106
84,2.65061012843643,3,-0.430660018438359,-2.57793834252947,2.65061012843643,-0.0219295297157178,-0.00854716337407378,0.0235363182187797,-0.0165211757745923,-0.340460310909417,0.341443402164048,0.0220285266426989,0.205912975734393,0.20813282559055,15.4385794633146,1.42815563139436,0.851927475819263,0.0565526197997991,0.240317525540415,0.098439736942151,0.403436310365526,0.00189161057908338,0.0089996922215016,NaN,NaN,NaN,NaN,2.95681470906161,-98.270421652992,1.52289606787738,unstable,unstable,0,0.748455932701157,0.0829277127752471,0.0538699588313475,0.953808751400565,0.356249005803488
85,2.007467270774,2.88129425048828,-0.411289000423156,-1.94535066228081,2.007467270774,-0.00717732736989565,-0.00320078794594846,0.00785869401679326,-0.0133222920415301,-0.202618676085756,0.20349385178709,0.013127500888861,0.158520477435468,0.162201836535288,15.3859716598849,1.22824254334417,0.75676197714732,0.171213557637398,0.240309971130816,0.169741340266784,0.464487338517201,0.156636547609349,0.0409763688571983,NaN,NaN,NaN,NaN,2.10680641889481,-101.731697741666,2.39618852423991,stable,stable,1,0.567764972846791,0.198051831005459,0.203347839751462,0.898796757091725,0.324559404325874
86,1.95872581958771,2.92786955833435,-0.557266369271502,-1.84967545588816,1.95872581958771,0.00243615591900002,0.00708311859637478,0.00749035544630487,-0.0233568704402869,-0.185213309242243,0.187900316046819,0.0121306680833544,0.209223829772293,0.210713112787018,15.3322604447371,2.03201862169754,1.80623943392801,0.0108434975523116,0.0769370923259435,0.125567131760365,0.462504067791852,0.000178169372142223,0.00525294725405972,NaN,NaN,NaN,NaN,2.01104491577433,-105.279667622794,2.36150217083027,stable,stable,1,0.564469507780792,0.219430573049817,0.133647692855349,0.964420509358215,0.344192385884282
87,1.95492069191403,2.73466849327087,-1.09045280097116,-1.60530272374818,1.95492069191403,0.00218004422461883,-0.0041349422950186,0.00467443478983584,-0.0651088295195873,-0.137158418842054,0.154991132334079,0.00999894435827912,0.133933613635295,0.136674527208491,15.3790921751012,1.13890650479285,1.09781688867277,0.172065043062327,0.240279522986071,0.134122542568014,0.45076599579488,0.159493838635631,0.0357643123063046,NaN,NaN,NaN,NaN,2.06469467336038,-124.238920485483,1.68779583372946,stable,stable,1,0.548647089952106,0.17630023501676,0.189671495989801,0.896393223234464,0.340389981080883
88,1.89084004737713,2.98323512077332,-1.03745073236916,-1.54910601820854,1.89084004737713,-0.000701456846014963,-0.00433077797681808,0.00438721775061527,-0.0628737673271083,-0.132776506351846,0.152781131593903,0.0098540744634738,0.181678429523798,0.184217287692269,15.469421415549,0.940142088828282,0.851983341647628,0.172599238885103,0.240278626674816,0.15963607976038,0.426216759520763,0.159460267559265,0.035455194180947,NaN,NaN,NaN,NaN,2.00959748573364,-123.70580417537,2.03679409432923,stable,stable,1,0.541067470172354,0.246593214768422,0.231719956771374,0.899619395032281,0.329050631217609
89,2.62296411196391,3,-0.24649465907123,-2.57866249610453,2.62296411196391,0.00439927832951628,0.00360405553793693,0.00568707887593317,-0.00958744361278765,-0.345597390155963,0.346039967923968,0.0223316976266571,0.197178827010579,0.199946712566544,15.4330336037172,1.5516212214399,1.43793315229655,0.0104348299017377,0.052305931729072,0.110114669761553,0.411898166904782,0.000127017130808185,0.00490418317119827,NaN,NaN,NaN,NaN,3,-94.0907171926139,2.32111638790879,stable,stable,1,0.739446439037018,0.0858757059353751,0.0533652149543432,0.971293229255488,0.351060146772643
90,1.92630411783854,2.93455457687378,-1.04145477928631,-1.59596221829701,1.92630411783854,0.00336196766248972,-0.00434448288918525,0.00549339222503272,-0.0611920681047227,-0.137553242413112,0.154947488052178,0.00999323553631195,0.166845011415141,0.169590536766545,15.4641889158818,0.883299339560944,0.793670832782223,0.17194560656055,0.240245000155043,0.129442729007171,0.36405398862576,0.159434118165183,0.0367685856146174,NaN,NaN,NaN,NaN,1.99637079272466,-122.311062912018,1.83674373554406,stable,stable,1,0.547599205443587,0.227863475190851,0.220948087956877,0.900851002508457,0.342469898219035
91,1.86449611451891,2.61861991882324,-1.08744116529935,-1.49926312254604,1.86449611451891,-0.0041213131384223,0.00436179399924184,0.00600087234298101,-0.0641718918096461,-0.119146944192976,0.138228318526997,0.00891610803350229,0.119251293208333,0.121798142396492,15.411574224831,0.848303333202144,1.03532214939707,0.172235101666265,0.240219718892409,0.121426071906039,0.481079956400369,0.159464047679661,0.0375739553161492,NaN,NaN,NaN,NaN,1.94546366280019,-126.251978914843,2.16934210311662,stable,stable,1,0.521558592351007,0.170778015898022,0.187002976097262,0.899082534660731,0.346032856930649
92,2.61760462800662,3,-0.467831958349298,-2.54358594410187,2.61760462800662,0.00794846179631033,0.00652349998664376,0.0102827086413623,-0.0201011243869967,-0.336825762428647,0.338091323863633,0.0218250195564699,0.194322792457838,0.196968548009615,15.43480378256,1.87402524794266,1.75199393473751,0.00952274855420611,0.0469287916317062,0.123589977662815,0.400178216411851,0.000171104167859068,0.00372843510237541,NaN,NaN,NaN,NaN,3,-99.2513675644137,2.36210882001146,stable,stable,1,0.737421610403688,0.0879241219494275,0.0541863140491647,0.966748475001838,0.345071121038749
93,1.68190134579644,2.54736328125,-1.00405389391835,-1.33329979426521,1.68190134579644,0.0103942350049822,0.0119122010991816,0.0158095115789875,-0.0557596482249848,-0.0956954577802983,0.113536438586949,0.00732433092852048,0.132121503376533,0.134263065199819,15.4405494743952,0.99082135095771,1.01562716330708,0.170813149378188,0.240206612499067,0.164310211005258,0.385730225138486,0.15947416564577,0.0351473158256364,NaN,NaN,NaN,NaN,1.74681180591764,-126.657123786368,2.39925816679517,stable,stable,1,0.475359638585682,0.197627345933198,0.202234656632007,0.898828472698826,0.326973239553219
94,2.65157671570778,3,-0.275863406046968,-2.60089844322436,2.65157671570778,-0.023817416907951,-0.0103242279191942,0.0259587948544345,-0.00889296551973287,-0.346453567470424,0.346895894957084,0.0223769366536928,0.199576869467618,0.201882238749179,15.4491195193441,1.27710978837669,0.632952184525272,0.0581733234286447,0.24035607860353,0.113573079504501,0.432657358208666,0.00189144264131319,0.00754605261755141,NaN,NaN,NaN,NaN,3,-94.2734617915732,1.63791600821106,unstable,unstable,0,0.747463571938577,0.0831543513557294,0.0534772711210097,0.955905708498591,0.349523075775777
95,1.78527963770567,2.39356017112732,-1.10738583657777,-1.38822385672546,1.78527963770567,-0.00943628960434528,-0.00244459662659795,0.009747800478254,-0.0656695500693674,-0.102180780423656,0.123784954883935,0.00798474773007872,0.122213841864353,0.124436854944684,15.4445208125119,0.904195578474843,1.01579573988767,0.169138554163296,0.240219737713285,0.162768571441611,0.44142873963421,0.159437694174217,0.0356734714835941,NaN,NaN,NaN,NaN,1.86493072097439,-128.583435678336,2.46773970747808,stable,stable,1,0.500961941043782,0.138650216774218,0.167023498923873,0.900345076845503,0.327658412692618
96,1.72214025537173,2.60979008674622,-1.05304713619387,-1.34871389373484,1.72214025537173,0.00485220355435815,0.00230944450712498,0.00537377086080302,-0.0596663474567815,-0.0959320445781233,0.115460556182834,0.007450993220489,0.120539775737344,0.121423826058144,15.4503427611907,1.52132871438982,1.52752642221705,0.016844246856355,0.0501911677214391,0.10542263641681,0.409544907814934,0.00028087152898309,0.00204695872404893,NaN,NaN,NaN,NaN,1.76269102467469,-127.19753908103,2.06435092517336,stable,stable,1,0.48352216664409,0.20070640338374,0.12129302244783,0.967622586212769,0.353145494925862
97,1.72317603340855,2.69081020355225,-1.04227629509602,-1.34434281412368,1.72317603340855,0.000522112843040061,-0.000392928793224121,0.000653448435159148,-0.0620824979815814,-0.101125775201932,0.124019925256463,0.00799845417883894,0.180586944009987,0.182777190930084,15.4394903063643,0.775713915913768,0.930217434512906,0.170895665169488,0.240227565928956,0.137373376987416,0.428769198443085,0.156608639064791,0.0397234816596292,NaN,NaN,NaN,NaN,1.81622668042125,-127.513201967813,1.81801239671402,stable,stable,1,0.496069047094964,0.21783748716211,0.214751234303301,0.901148421090475,0.338945165783371
98,1.83741961770198,2.70432090759277,-1.15098969197967,-1.41638204832095,1.83741961770198,-0.0143654908224741,-0.00910950085809578,0.0170103007749491,-0.0722369044723979,-0.10669362536742,0.13199326410183,0.00851336794252512,0.127071143366234,0.129597081668645,15.4700557287814,0.741088950592157,0.953750286499906,0.170598397126467,0.240256649066438,0.153720846997952,0.434747966549502,0.156671986927895,0.0422212034825813,NaN,NaN,NaN,NaN,1.91962505408224,-128.853168090004,2.36574747187915,stable,stable,1,0.515897981054257,0.198171345367503,0.203887966313434,0.901384207431043,0.331679623556466
99,2.620967070659,3,-0.160857100135205,-2.58335382942959,2.620967070659,0.00663210347845493,0.000335728786878363,0.0066405956334709,-0.00572454970584043,-0.347288328891742,0.347571156706425,0.0224194873715088,0.200638574911714,0.20350418904865,15.4630942747255,1.25643567972106,0.781200463653346,0.0295870842113886,0.0491847212955445,0.0943965805336149,0.417879719947421,0.00587479112813921,0.00634895264602165,NaN,NaN,NaN,NaN,3,-92.2002194325483,1.62111434778463,stable,stable,1,0.739625389985464,0.0864998516345276,0.0568196393129883,0.969196459624935,0.358045964207282
100,1.62225456591006,2.79660892486572,-0.999803447582483,-1.24867021546567,1.62225456591006,0.00515330808182229,-0.000459234717286516,0.00517372986458862,-0.0571970741883538,-0.0870662394970965,0.109452985379244,0.00705978176619449,0.155954263866797,0.157858737708566,15.4344963876304,0.816819975610088,0.971835985510918,0.171530268647195,0.24021736978912,0.132090262684798,0.327403071504005,0.159485193687095,0.0341490946392568,NaN,NaN,NaN,NaN,1.68546986904653,-128.540481584722,1.70788812848535,stable,stable,1,0.464172965117728,0.265178247906866,0.242407109645589,0.900181140267595,0.341293216584534
101,1.58403179601387,2.59251141548157,-0.996962893445082,-1.20441863998166,1.58403179601387,0.00521653922194826,0.00583191770870156,0.00782454763006728,-0.0575149758539404,-0.0816380076940503,0.104854153062986,0.00676230997860898,0.167751220310313,0.169631841976772,15.4701862820669,0.600025130695369,0.924340290337558,0.171698819792726,0.240215609781291,0.121586087236907,0.398915266020572,0.159459266185463,0.0343933879965609,NaN,NaN,NaN,NaN,1.69807149429304,-129.55767099295,1.79586184877863,stable,stable,1,0.456334847332386,0.228342414779078,0.220382920382968,0.902173433224093,0.345961739005819
102,2.61936724702517,3,-0.140718102199585,-2.58425588211459,2.61936724702517,0.00547829534555868,0.00713083642166152,0.00899224932737434,-0.00506257321597969,-0.347448408649749,0.347706308782665,0.0224762119532628,0.19431991457711,0.197122748423686,15.3394714348465,2.65548211222986,2.41292449002232,0.010545789353435,0.0678505725530772,0.14481280163373,0.470501936101937,6.33897274280258e-08,0.00430204855811807,NaN,NaN,NaN,NaN,3,-91.8482151525671,2.42132472107168,stable,stable,1,0.737922482224783,0.0872909484626883,0.0539389785446863,0.954903910591301,0.335638754829453
103,1.68709412680732,2.48751664161682,-1.04641721391631,-1.30317920395759,1.68709412680732,0.00910813521386213,0.00612076378353783,0.010973690189169,-0.0602239190655514,-0.0920336801699496,0.113816640313289,0.00734211021779064,0.132628524617556,0.134646989548048,15.3820611196464,0.942550658059902,1.08195976245246,0.171619780419007,0.240220955797644,0.145088262727673,0.453237728100522,0.156670007290256,0.0415414832682302,NaN,NaN,NaN,NaN,1.75398132014352,-128.600052606655,1.62500103517371,stable,stable,1,0.476821165058228,0.182106909033486,0.194001253687037,0.898283242200757,0.33551632767659
104,2.67502149896345,3,-0.3693758523187,-2.61564223901566,2.67502149896345,-0.0303293352849265,-0.011426045628286,0.0324102313710526,-0.0138557895563924,-0.350502577139691,0.351197916574109,0.0226555362959337,0.202684052986516,0.204845372978227,15.4593173682623,1.27652730133461,0.881676296928365,0.0575829644060251,0.240254398522401,0.0829200518264534,0.389267554628503,0.00185103939447532,0.00475690615593955,NaN,NaN,NaN,NaN,3,-96.2939600424606,1.96495986470554,unstable,unstable,0,0.7543081409859,0.0790620384845828,0.0499896913227773,0.954251203810635,0.363146643632687
105,1.69701106371703,2.60729455947876,-1.06434124714059,-1.3083238625249,1.69701106371703,-0.00795243469862563,-0.00261014027565046,0.00836982974106867,-0.0613085210534877,-0.0915555895278968,0.112697119258768,0.00726904045467314,0.117830229842504,0.119844973967839,15.4584505827823,0.801844553411273,1.04073522579364,0.171753241899744,0.240200479680891,0.17552729565623,0.451992874570898,0.159472136272874,0.0350165484412509,NaN,NaN,NaN,NaN,1.78074250763471,-129.221424924807,2.24683411082425,stable,stable,1,0.476505278451443,0.206348255332252,0.20741874855179,0.899645966499232,0.321987868597231
106,1.86564354936282,2.56690311431885,-1.08731686575967,-1.50129889897096,1.86564354936282,0.00504454341293976,0.0018084775013845,0.00535891865193416,-0.0638395798189557,-0.118032309532013,0.136870534181766,0.00883604648521359,0.123850657424185,0.124961585157377,15.4293154425247,1.74897347035256,1.91244239195564,0.0153381618093443,0.0621733894198934,0.121711972605491,0.470422343554648,0.000258197130841888,0.00707338197691896,NaN,NaN,NaN,NaN,1.88415857146299,-124.959215831678,2.18074055113188,stable,stable,1,0.522497263528227,0.158765870534628,0.0979464155018487,0.963562651605763,0.345905789953115
107,1.65625424164313,2.44015526771545,-0.983973806993083,-1.31834936029776,1.65625424164313,-0.00212750754042497,0.00538249864496931,0.00578770939125847,-0.0525380499157922,-0.0928818310370724,0.109120168112565,0.00704032888562542,0.122330055020311,0.124393648257025,15.3820758692571,1.0666769548119,1.1070091136062,0.171981562016652,0.240172669645412,0.142631958674111,0.457025887100631,0.159421665976557,0.0382406229809626,NaN,NaN,NaN,NaN,1.72726488943798,-126.550224489005,2.32940603092546,stable,stable,1,0.466546527422906,0.177438810921337,0.191223041404148,0.896930257025532,0.336608018367062
108,1.6326647899769,2.30349659919739,-0.988048052198361,-1.28668879868365,1.6326647899769,-0.00855576440088793,-0.0140819971532585,0.0164773707947561,-0.0527162651426686,-0.0883358325739306,0.105115552898807,0.00677927471861487,0.108950380462075,0.110786699925717,15.4604265195544,0.750724087236592,0.92319953273425,0.172185172536415,0.240185856948954,0.130976394306669,0.40643630259472,0.159458173978788,0.0383453135688705,NaN,NaN,NaN,NaN,1.72684939224008,-126.925173742408,1.86560243832441,stable,stable,1,0.457534617312316,0.153958008386982,0.177188854966997,0.900755156717736,0.341788269197036
109,2.61605995297432,3,-0.299602740232106,-2.56608929368576,2.61605995297432,0.00543380069202714,0.00416492005467975,0.00684636757869077,-0.0119300593532602,-0.342587198548032,0.343164301202835,0.0221450008819935,0.199246811636269,0.201985856039688,15.441961607602,1.55072207044658,1.2716176216674,0.02202152486339,0.0476546616915823,0.101355315844728,0.393694686920697,0.00030420962618609,0.00413346634611737,NaN,NaN,NaN,NaN,3,-95.4171668207032,1.86370454595859,stable,stable,1,0.738013158667756,0.0876416779702048,0.0542232897317432,0.966813711415981,0.354953192957899
110,1.59164127552951,2.40358996391296,-0.906091969272614,-1.28891171779936,1.59164127552951,-0.00869147660747892,-0.00720783354888564,0.011291352004379,-0.0455306490028385,-0.0898682185040214,0.103770622655816,0.0066951608312945,0.134762262676021,0.136603817567553,15.3638896631396,1.1153339011573,1.10678203031029,0.17118203201265,0.240173121771764,0.141661584741091,0.451580105972373,0.156561008576598,0.0420870666435973,NaN,NaN,NaN,NaN,1.65985778043302,-125.136897277648,1.57205996574772,stable,stable,1,0.451758436988046,0.18475853608708,0.195742180001135,0.896949501675001,0.337039295670626
111,1.51865151590771,2.42719411849976,-0.889041970177904,-1.20556228024714,1.51865151590771,0.00403588782774186,-0.00120249602043335,0.00421122158491725,-0.0457273674793627,-0.0820450313079038,0.0981657734980838,0.00633164046022258,0.163086497846119,0.16481234171662,15.4577663919715,0.860941772033773,0.91179546475021,0.171377726770136,0.240227868923036,0.147503139222413,0.44675379161225,0.156787429141352,0.0395499204984286,NaN,NaN,NaN,NaN,1.59306398738573,-126.486183134521,2.1587068569705,stable,stable,1,0.437936205918714,0.205194142873778,0.207181576837024,0.900382486897344,0.334443049234483
112,2.62159083803495,3,-0.242795553244393,-2.58048526120062,2.62159083803495,0.00450361675324449,0.00721808142551235,0.00850783540775389,-0.00932857897280698,-0.34656189845895,0.346960479700556,0.022391425460439,0.19169861697941,0.194452076623935,15.4386029895348,1.71215246739146,1.33506337546566,0.0185444636281043,0.0480111797965844,0.109882488065469,0.411540015595437,0.000504829141146479,0.00487863859696667,NaN,NaN,NaN,NaN,3,-94.1056534981467,1.97777757684288,stable,stable,1,0.73798130546744,0.0867018312668917,0.0540195176662082,0.96678535799207,0.351163338637569
113,1.68037341391599,2.72757935523987,-0.960110894667746,-1.35152157441674,1.68037341391599,-0.00727439184563942,-0.0170266118725243,0.0185154607985189,-0.0531792071584063,-0.101767182368377,0.119538663561161,0.0077102985529564,0.18482067692553,0.186947461816986,15.4697696108608,0.849085568274257,0.945369376011887,0.170586188402883,0.240220163848118,0.163762835755705,0.356771641377139,0.156676025431866,0.0430491715281449,NaN,NaN,NaN,NaN,1.77528590773906,-124.910768203071,1.5,stable,stable,1,0.485489069407661,0.239015837944268,0.228697536039443,0.900607616950596,0.327216517441909
114,2.60513302824407,3,-0.408326851210724,-2.54080555874465,2.60513302824407,-0.019676679662767,0.0137880197280655,0.0240266770605648,-0.0173082564173132,-0.347181230226474,0.348172439424138,0.0224691761087392,0.202259585960429,0.204307161712471,15.4412394396359,1.59861452695283,1.27533727507728,0.0571659229423282,0.240294181283676,0.113733311833034,0.405529123522628,0.00192137739976442,0.00693863917350268,NaN,NaN,NaN,NaN,2.9979851142919,-97.9705526263991,2.20031751569271,unstable,unstable,0,0.73556357320758,0.0932499594395206,0.0593270626923561,0.948835988655742,0.349451861407541
115,1.79736840724945,2.51386523246765,-1.00927377060695,-1.47452600495558,1.79736840724945,0.00504411498310279,0.0102085652636326,0.0113867423218675,-0.0552575204108867,-0.115153093448433,0.129892156397702,0.00837776161182427,0.111036048228518,0.113301752083988,15.4175192047437,0.825166175262102,0.876528641174502,0.171509064359698,0.240226398697346,0.110029867890604,0.48142301529458,0.156652913778722,0.0413502838154302,NaN,NaN,NaN,NaN,1.89315516909655,-124.179562229341,2.14968551193607,stable,stable,1,0.501958592349984,0.163299355099771,0.182639597136825,0.900875008548149,0.351097836493065
116,1.68580871641636,2.46329832077026,-1.02108630193568,-1.3275996672974,1.68580871641636,0.0020256351175591,-0.000972760520022831,0.00224710050037905,-0.0562560356942312,-0.0927447802935743,0.11082879950755,0.00716227374306447,0.118943718379883,0.119843440358697,15.326578081203,2.34807242074811,2.57724156310761,0.0111390762368515,0.064525054792249,0.149261272034194,0.451803209302288,5.97569520259283e-05,0.00806997982308989,NaN,NaN,NaN,NaN,1.69700248239393,-126.66944677606,2.41231582037495,stable,stable,1,0.473517679116102,0.175347129404698,0.108169374405651,0.955731566294136,0.933661656873692
117,1.60783833047769,2.18369817733765,-0.924938161966325,-1.30264549567587,1.60783833047769,-0.00853554828476794,0.00914602512920394,0.0125102102374674,-0.0460342649854406,-0.0900814964863869,0.103110654480998,0.00665023894876035,0.104597346641682,0.106367518652579,15.4600260273741,0.799988831696806,0.886610136987138,0.170021065156121,0.24019145824805,0.134076848471748,0.430793617187558,0.156607615437111,0.0394423856946683,NaN,NaN,NaN,NaN,1.6721231422542,-125.43586516234,2.42789033936931,stable,stable,1,0.450030391857901,0.131862004087025,0.163063272798083,0.90173761838228,0.340410289568112
118,1.70130383659292,2.74595856666565,-1.02981841423504,-1.32416457380727,1.70130383659292,0.000177380576566545,-0.000428110530319062,0.000463403166921794,-0.0607460225226766,-0.0979831502785826,0.120991960084329,0.00780444786139327,0.176852248284202,0.178965355298156,15.4056418634503,0.952160851579555,0.997871864820854,0.17171714512727,0.240259251305626,0.172409122156608,0.482686824106588,0.159402272153248,0.0345593556892241,NaN,NaN,NaN,NaN,1.78141492798702,-127.597402747289,1.5,stable,stable,1,0.489474094151077,0.235132271513633,0.224491855630957,0.898819741807505,0.323373723485952
119,2.57846661289533,3,-0.347022173511474,-2.52345995114779,2.57846661289533,0.00615839425257145,-0.000355113181082041,0.00616862425030762,-0.0137885737381582,-0.332555330310569,0.333238867321293,0.0214976207258548,0.204492832945061,0.207149633928709,15.4574263525232,1.24982391722185,1.0717003745029,0.0129676945844709,0.0476669642551707,0.0869979212601212,0.3882760259827,0.000112164273701051,0.00342747494430301,NaN,NaN,NaN,NaN,2.88139783872518,-96.8469577847742,2.17789384091055,stable,stable,1,0.72902102355783,0.0959759265444405,0.058881761240177,0.975275604701356,0.961334257217724
120,1.67817662645269,2.65441989898682,-0.959627092230813,-1.35022857774629,1.67817662645269,0.00114763160325986,0.00131636524250341,0.00174638934618596,-0.0531009620238319,-0.102162004166495,0.119849154493841,0.00773053407733406,0.174125923742183,0.176234873793487,15.4599421637236,0.896743701823848,0.930597921690288,0.172272120818591,0.240226941993134,0.165704866286274,0.360653008696114,0.159456363366651,0.036636029375161,NaN,NaN,NaN,NaN,1.76744363452008,-125.864521808831,1.63429155795829,stable,stable,1,0.482760741812749,0.219974907700312,0.216176631949868,0.899506255405951,0.326353392761656
121,1.66509096061482,2.46632814407349,-0.947863592880434,-1.35676950313662,1.66509096061482,0.00250775085881479,0.00869218017719944,0.009046701642189,-0.0487724286486762,-0.0979859582981742,0.111471406219556,0.00718935617557672,0.111635220427825,0.113617806940499,15.4618340827384,0.76917384625659,0.865568037955325,0.171604128239181,0.240196271527363,0.122073010968482,0.399336153160771,0.159419483184909,0.0354889644277276,NaN,NaN,NaN,NaN,1.76448514358837,-124.664357217421,2.39010666666232,stable,stable,1,0.466747817552052,0.181936928245934,0.192920338559017,0.901353535361602,0.345745328458452
122,2.62357978463173,3,-0.386140177383586,-2.56097495724394,2.62357978463173,0.00573668653512841,0.00188266463964974,0.00603771467922351,-0.0163452819571041,-0.340884704109079,0.341787705574503,0.0220641731558197,0.194660962069695,0.197397348531436,15.4039715107742,1.9658211411645,1.58111270054645,0.0160967699586867,0.0575860663048586,0.116611219666959,0.405248560860815,0.000174452200991276,0.00459560048805088,NaN,NaN,NaN,NaN,3,-97.1526305433791,2.14059486410623,stable,stable,1,0.739100745608082,0.0858014628157186,0.0532295394511831,0.964082849121499,0.348172791259129
123,1.60442735619015,2.20052886009216,-0.903685738471137,-1.31286924104773,1.60442735619015,-0.00382309641787505,-0.00530852246470294,0.00654190163321223,-0.0443730550018555,-0.0914996370520426,0.103643655215131,0.00668719339173491,0.10651205765535,0.108373490740018,15.3581894063898,1.09721935954336,1.15386405172959,0.171853505140376,0.240185525806926,0.13485477565299,0.469305180377062,0.159408302430921,0.0381235061603088,NaN,NaN,NaN,NaN,1.66518818535526,-124.488998271363,1.88593917290353,stable,stable,1,0.449521993132044,0.135322187010708,0.165904539769371,0.896386163484096,0.340064544154227
124,2.60043191636374,3,-0.499720677621097,-2.520148342985,2.60043191636374,-0.00631578735468675,0.0170177443150247,0.0181519363011546,-0.0235145731637915,-0.339411614237054,0.341073206974549,0.0220172790747774,0.198332112932315,0.200323045672013,15.4379867058499,1.80236557022413,1.43257182657955,0.0578321725101863,0.240458945998743,0.134483283650438,0.393211568428479,0.00195027483398443,0.0111532976127927,NaN,NaN,NaN,NaN,3,-100.530616564359,2.4892845376447,unstable,unstable,0,0.733513120164734,0.093230673806703,0.0608609376855961,0.945666548484307,0.340229651710916
125,1.54019519708452,2.12836337089539,-0.782799250643619,-1.31461268778233,1.54019519708452,-0.00763216038943614,0.00112396485696508,0.00771447789612301,-0.0338108034636439,-0.0916870189626184,0.0991554340438844,0.00639682152832903,0.107588733073927,0.109294763872488,15.3983554698604,0.99916952506907,1.06082947960707,0.16972455840229,0.240154448553737,0.140263524321421,0.396932623836773,0.156606137316022,0.04268371527222,NaN,NaN,NaN,NaN,1.59718321662841,-120.692341177793,2.45346807454786,stable,stable,1,0.432577671997037,0.133752160055066,0.165375374737129,0.898952014333543,0.337660655857146
126,1.55738498091698,2.25546884536743,-0.869706520757053,-1.28020240702627,1.55738498091698,0.00187181031711148,-0.000611691126101635,0.00196922317094749,-0.0410916111257316,-0.0862517782140635,0.0971939570578292,0.00627202904008818,0.106772627954526,0.107539191279288,15.3729190208464,1.4681620915231,1.39625850380875,0.0254029573728128,0.0759097798492931,0.0891445296106067,0.482234261851111,0.000145421815609296,0.00492162251348233,NaN,NaN,NaN,NaN,1.57811714801433,-123.111297136965,1.8090452754309,stable,stable,1,0.436810499833718,0.157429893749359,0.0963122490816578,0.964792359493129,0.960380209061953
127,1.45602684374209,2.12006020545959,-0.710926476098134,-1.2605133507041,1.45602684374209,-0.00340033147403093,-0.00471883479813993,0.00581632667457921,-0.0274843113850166,-0.0844193641920392,0.0898097184635282,0.00579219478795597,0.0927771702380264,0.0943082682766526,15.4247897429828,0.796067088388752,0.778304494158073,0.171716137095443,0.240147480065462,0.138207744234384,0.473362546166081,0.159427945259258,0.0341585677260299,NaN,NaN,NaN,NaN,1.53181850141805,-119.504479623187,1.52564521467426,stable,stable,1,0.407135478653221,0.150473832943445,0.173562461680657,0.901771869017982,0.338574335895829
128,1.58877815493831,2.38402557373047,-0.828933908136976,-1.33842669816165,1.58877815493831,-0.00828248521053978,-0.0184381070259217,0.0202129501053694,-0.0384708127449715,-0.0964073480657149,0.10610850251413,0.00684470025407184,0.128872244313941,0.130774786890166,15.3720831808382,0.943565118105364,0.998499576239231,0.171293432748871,0.240180580845812,0.122177972377287,0.482072228609066,0.159437382027077,0.035700214967146,NaN,NaN,NaN,NaN,1.67347133841587,-121.814224359451,1.84479841579376,stable,stable,1,0.449829132028249,0.182636376747554,0.193424781078923,0.899094203884286,0.345698678943428
129,2.62469037095706,3,-0.519248654768708,-2.5412057845428,2.62469037095706,0.00666444603410506,0.000540523753926218,0.00668632985052765,-0.0227212184698524,-0.335834841031614,0.337388212322042,0.0217715711292824,0.193541135483743,0.196211723816857,15.4394243660151,1.51968268888879,1.37314728949798,0.0196501231601434,0.0492842918042687,0.0951679714536871,0.39533418618203,0.000309186404132611,0.00531422679633738,NaN,NaN,NaN,NaN,2.98812679975473,-100.15154225882,1.98130833986055,stable,stable,1,0.739159777018586,0.0856704936739256,0.0534721584917289,0.967445560018318,0.357703123798361
130,1.62100866173997,2.29254841804504,-0.891396252995924,-1.33399678640857,1.62100866173997,-0.00240916220917086,-0.0011069065184189,0.00265128357416088,-0.0443272553736545,-0.0960932094482214,0.10883673989637,0.00701914504786749,0.138525003863518,0.140390169287439,15.454046494756,0.771326816405795,0.76951417596556,0.169785355881213,0.240181119974899,0.121766164818844,0.417156296778455,0.159514308186768,0.0345218749897882,NaN,NaN,NaN,NaN,1.67291748571223,-123.514973806059,2.40289984474399,stable,stable,1,0.460347010321479,0.151582513823905,0.174398165464547,0.90300071426219,0.345881704524958
131,1.50134899218877,2.07907176017761,-0.733383576490931,-1.29875254111001,1.50134899218877,0.0019405945981864,-0.0063317121841263,0.0066224230140579,-0.0299432290939896,-0.0897040185444489,0.0958430876124549,0.00618110701008138,0.104587017665361,0.106365838462474,15.4497921649118,0.661206937564842,0.806617750970585,0.17189443412434,0.240163078233321,0.124982584911405,0.431495072284911,0.159443257216891,0.034602004125937,NaN,NaN,NaN,NaN,1.54515709711904,-119.107877075441,1.70446042127994,stable,stable,1,0.421632898942834,0.1312017336834,0.1621672570391,0.902519874670766,0.34445218448382
132,2.6301808544,3,-0.459453852574241,-2.55610417848303,2.6301808544,0.00561736742862584,0.005621847983586,0.00794732606470482,-0.0198947797238122,-0.339581590125266,0.340832720631531,0.0220049472224838,0.192746265664771,0.195492952184309,15.4181418365959,2.10194620682103,1.56006216266011,0.0150784104910677,0.0539220435732124,0.131098034513207,0.391409628538653,0.000294846685902702,0.00411501581254712,NaN,NaN,NaN,NaN,3,-98.8062245222683,2.15921285668201,stable,stable,1,0.740480151610195,0.0846663175385295,0.0524272028810108,0.9636878718514,0.341734206883019
133,1.58980827552301,2.34016537666321,-0.794663441127048,-1.35442697001689,1.58980827552301,-0.00784984555323497,-0.0115083732576015,0.0139306399797684,-0.0368573642992275,-0.100917516469057,0.110333717408183,0.00711617445463184,0.156152489124215,0.158008767905179,15.4656467627702,0.791596847957267,0.911276680026302,0.170693804497734,0.240222012703321,0.149931834491703,0.361148088439192,0.159409154010143,0.0361903782410172,NaN,NaN,NaN,NaN,1.68330103474598,-120.509023497779,1.51792028646774,stable,stable,1,0.455550627053838,0.171384298419502,0.186839229487286,0.901273377174119,0.333363629114798
134,2.66928128135261,3,-0.619442453495398,-2.56400780452783,2.66928128135261,-0.0263233245926072,-0.00725396639951358,0.0273045316043515,-0.0273386666232316,-0.339039005502485,0.341207635648684,0.0220270813187935,0.198404587927052,0.200452519569363,15.4043941518774,1.87002757394791,1.39940085923844,0.058615375490603,0.240493792261538,0.133278808967267,0.473787364464306,0.00190215199500153,0.0073179381929049,NaN,NaN,NaN,NaN,3,-102.269542710179,2.07053126887394,unstable,unstable,0,0.751898845607903,0.0794175424897931,0.0511569948143268,0.945003945993949,0.340764973792326
135,1.6552112336512,2.39453625679016,-0.833984600389035,-1.41862591613376,1.6552112336512,0.00770078665081505,0.00314068188852631,0.00831660975195352,-0.0378576714887755,-0.106694265368229,0.114659180281697,0.00739524723652647,0.105794011951717,0.107707795904649,15.465482346708,0.851658350681874,0.929489226452273,0.17194095063778,0.240197482036011,0.166782103058728,0.396852740535167,0.159464732041481,0.0372381117490218,NaN,NaN,NaN,NaN,1.71044333906111,-120.370167332204,1.83060250076676,stable,stable,1,0.462931221487916,0.167872841994125,0.185138050982232,0.900034793717913,0.325874620862788
136,1.61393713374933,2.50635504722595,-0.75427212987532,-1.40193777598848,1.61393713374933,0.00831738621604068,0.00694742476613566,0.0108372332422948,-0.0347036632966627,-0.106978773083197,0.115108735583845,0.00743312551482802,0.17540600905727,0.176281605255663,15.4032035036463,2.03680574795073,2.01606849160024,0.0107927021804908,0.0400545534955724,0.133344367537221,0.410701047217553,0.000231639002904468,0.00574291554422406,NaN,NaN,NaN,NaN,1.66149639163359,-116.91481150861,2.37751863461557,stable,stable,1,0.46563955671762,0.202780856626662,0.123859797569127,0.962759637027568,0.340735836650124
137,1.4267794114572,2.21575880050659,-0.676507039743576,-1.23391732153013,1.4267794114572,0.0091827116201427,0.00325709414175194,0.00974324663276767,-0.0274331067890304,-0.0839173773400574,0.0905524080323443,0.00584155939480602,0.144194771982976,0.145750503539765,15.3885549227497,0.928765483773809,1.00416508404235,0.171977428944281,0.240157439447019,0.128068920528061,0.473002206144494,0.156554973912055,0.0415724987129055,NaN,NaN,NaN,NaN,1.50463962214456,-118.009747287404,2.18207959016762,stable,stable,1,0.409624610429874,0.179306624418787,0.192281235315868,0.898823973923589,0.343080479765306
138,1.53223515042552,2.43227291107178,-0.672673835198842,-1.35401031686796,1.53223515042552,-0.0036818009354729,0.000666044443275498,0.00374156027999915,-0.0278671159621541,-0.101574278318571,0.107539741416098,0.00693630316381308,0.167674972936899,0.169542688007508,15.4626624725658,0.78975706755184,0.874373392216168,0.171446766942943,0.240218764711287,0.146606099303826,0.387540642177275,0.156629744340876,0.0421048083068438,NaN,NaN,NaN,NaN,1.62198882751374,-116.427624599585,1.5,stable,stable,1,0.442504577714974,0.203194448863407,0.206840728409407,0.901201305773208,0.334841733642744
139,2.61977229078611,3,-0.526785361697257,-2.53422441984122,2.61977229078611,0.00566825427873215,0.00675757689542665,0.00882008798516032,-0.0232352738568548,-0.334376527440894,0.335985513780896,0.0216964137810003,0.195188048445865,0.19789951519288,15.4175949295633,2.14071979335353,1.80509953720601,0.0153954038623228,0.0473371087124053,0.128572480764054,0.384592032583325,0.000188942627996155,0.00672639670430466,NaN,NaN,NaN,NaN,3,-100.33835635475,2.20704053327672,stable,stable,1,0.738185847248205,0.0871682507037386,0.0548308873615037,0.961299431900157,0.342856675215976
140,1.56230445614568,2.19237518310547,-0.727008155549883,-1.37062197223445,1.56230445614568,0.00452061431444381,0.0113306343881467,0.0121991487169313,-0.0295791803293519,-0.0997469583842763,0.105320679932538,0.00679220315446588,0.112811798098081,0.114684799527925,15.4594901070716,0.681458202161337,0.81643406599154,0.170618844302655,0.240148454419986,0.132880652391371,0.41442065963712,0.15666577532798,0.0398155162664858,NaN,NaN,NaN,NaN,1.62484937329115,-117.662804067615,2.12888780670425,stable,stable,1,0.439551481544432,0.144002424164058,0.170509057528986,0.902921424313186,0.340941932270502
141,1.55392168671997,2.42333006858826,-0.755393517500354,-1.33986963284917,1.55392168671997,-0.00580227449874286,-0.0206617378167595,0.0214609831780203,-0.0326074948590728,-0.0967322205620519,0.10417018725892,0.00672027949915057,0.132710191264885,0.134450886901699,15.3753988346801,1.06042335272047,1.07102838056396,0.1724278631666,0.240208653447857,0.142047882134359,0.473544067463067,0.159447448039258,0.037280207051221,NaN,NaN,NaN,NaN,1.58700801541868,-119.377240163094,1.96592641831951,stable,stable,1,0.441269293838997,0.199551399503003,0.204152811091411,0.897038947655179,0.336867607940285
142,2.6332136841615,3,-0.618938193601102,-2.52905947748394,2.6332136841615,0.00561103793388643,0.00751422470560946,0.00937802322570722,-0.0283999518450446,-0.332546605117032,0.334833903813355,0.0215998160234383,0.188869215566908,0.191499118740735,15.4701046957923,1.2590727654814,1.02888542804494,0.0156982479859934,0.0455795268502825,0.0844099609050819,0.390849866028252,0.000209999188161975,0.00489254363858897,NaN,NaN,NaN,NaN,3,-102.460692774955,2.12024863354873,stable,stable,1,0.740490139524548,0.0842462253217079,0.0524201749432099,0.974174061629296,0.362484461819964
143,1.44249401843106,2.11239671707153,-0.617678287247853,-1.28803876179901,1.44249401843106,0.000798920210369024,-0.00383608657682781,0.00391839683128887,-0.0223756282602277,-0.0887400566851332,0.092835137650143,0.00598784865758689,0.118912316753453,0.120526258039004,15.4581607906574,0.822603569214269,0.867124566298034,0.171745503883353,0.240186134938386,0.135583383275286,0.374028871274656,0.159480850282925,0.0368093900043489,NaN,NaN,NaN,NaN,1.50542716708844,-115.316950545559,2.00293549682008,stable,stable,1,0.408770323189418,0.151446479946509,0.175133498600281,0.90085081270787,0.339740718544318
144,2.67166216457521,3,-0.568069486900116,-2.57230494009797,2.67166216457521,-0.0276102569702648,-0.00349827115129748,0.0278309933529519,-0.0224058039619651,-0.340709326871092,0.342317501598486,0.0220864063145902,0.197104267630704,0.199361339550594,15.4201410334874,1.39031012792734,1.04443713050266,0.0564998720361073,0.240311719178487,0.1048358885567,0.437536320794954,0.00185313104454711,0.00704053292033291,NaN,NaN,NaN,NaN,3,-100.955060334027,1.55751067839736,unstable,unstable,0,0.75231551179684,0.078978361751953,0.0507708246379603,0.952619906951425,0.353406271752578
145,1.60570934613546,2.35991668701172,-0.721167906529769,-1.42151593265031,1.60570934613546,-0.00770327854264884,-0.00822277003182467,0.0112674064141624,-0.0290202700604001,-0.107192428659562,0.112311300138072,0.00724618136253461,0.1073140684592,0.109241305480121,15.3633139406597,1.13918955978464,1.10259091927338,0.171510096816793,0.240171077487688,0.151416469760026,0.494261547621984,0.156638342233964,0.040650455545791,NaN,NaN,NaN,NaN,1.68254359450145,-116.590495520199,1.94512202638971,stable,stable,1,0.45003742006548,0.171762342873089,0.187456430551559,0.896630962113291,0.332703791217766
146,1.74437183201313,2.54374480247498,-0.822687640888141,-1.51828100321198,1.74437183201313,0.00637440119732804,0.00351765201273272,0.00728058145392108,-0.0387857293900025,-0.121875422968033,0.130219217981647,0.00841771552370342,0.14110930614284,0.142097725475314,15.3023601009902,2.67731891895044,2.46649300266737,0.0179587479360142,0.073795837220527,0.168581601269855,0.507457874313829,5.26858869718017e-09,0.00666503614543445,NaN,NaN,NaN,NaN,1.779143412243,-117.297381887505,2.17423036940133,stable,stable,1,0.493585366965231,0.181193691620467,0.111139866821306,0.950604960933567,0.925074843880064
147,1.45420072122856,2.07817912101746,-0.69596579161079,-1.26660073284806,1.45420072122856,-0.00200266708315245,-0.00313109687939403,0.00371677859363366,-0.0268535148094394,-0.0856492087130163,0.0907686765890178,0.00585489036721324,0.10256180105797,0.104189278635018,15.460330789014,0.834665356005315,0.951779504904629,0.172012787321915,0.240199307692348,0.160745253386646,0.409853420075582,0.159477788785275,0.0371851600431627,NaN,NaN,NaN,NaN,1.48754464037965,-118.732441752547,1.70618222083,stable,stable,1,0.408624714721287,0.141076549361334,0.169046823234032,0.899957253860464,0.328557665161491
148,1.67976062474427,2.55489468574524,-0.736822490791763,-1.4914981346885,1.67976062474427,0.00387027685335152,-0.00295422101296309,0.00486892849762874,-0.031639925775227,-0.119626241903883,0.125608497313344,0.00810370842385127,0.140771998471595,0.143048475838483,15.3863614795758,1.0861941182539,1.04746192557444,0.171820454804713,0.240200552163875,0.122269953980617,0.493095787750719,0.159437039713599,0.0380859416343273,NaN,NaN,NaN,NaN,1.75445964810256,-115.915142708198,1.51379299075606,stable,stable,1,0.47654586176617,0.197797800616449,0.20338902023082,0.897325332253278,0.345657798230837
149,2.57030245145162,3,-0.61406851875576,-2.46322444482785,2.57030245145162,0.00620751357116514,0.00677814495547747,0.00919110840832943,-0.0287740952452453,-0.316629185816768,0.319131168262507,0.0205940054288061,0.204869257548882,0.207345461901917,15.4528828339453,1.57561617014999,1.37357331189931,0.0194827324845614,0.0490709853639254,0.106396585679276,0.413212134220109,0.000163824817257438,0.0030846146128686,NaN,NaN,NaN,NaN,2.89228411426449,-102.374592577792,1.96968294237709,stable,stable,1,0.726883079434149,0.0983669849649127,0.0602146800498829,0.967086430684475,0.352712628586989
150,1.52074814460896,2.12423157691956,-0.619854592176326,-1.37841975081007,1.52074814460896,-0.00111546757249164,0.00362443716277754,0.00379220419442352,-0.0217671557511362,-0.101133814790508,0.10419818425705,0.0067200646937321,0.11160435054544,0.113493434288753,15.4682393350328,0.801815102449128,0.781851544308451,0.171400365779449,0.240156589973801,0.106869440067375,0.409509808826891,0.159460332335768,0.0379522867155209,NaN,NaN,NaN,NaN,1.57055207434036,-114.528428258895,1.73895417703767,stable,stable,1,0.428231525420139,0.136479009705529,0.166559496172131,0.901856722028609,0.352502471081167
151,1.47095275055753,2.07071852684021,-0.633477963259884,-1.30944674291353,1.47095275055753,-0.0142779725345343,-0.00214705900095265,0.0144385027634616,-0.0239689718381074,-0.0916615009868201,0.0963288234324431,0.00621227872968461,0.12260027632944,0.124230187025844,15.4563779364824,0.684836170554075,0.768518515558599,0.170000648229672,0.240164101509206,0.12575308475677,0.410745945993695,0.159496600591004,0.0360039772611016,NaN,NaN,NaN,NaN,1.53043490962982,-115.371127707452,2.47413976216933,stable,stable,1,0.41710010422051,0.137594358503571,0.166536348510262,0.903580460494279,0.344109740108102
152,2.61988321979841,3,-0.649098668411342,-2.50618950408608,2.61988321979841,0.00769732850444847,0.00227727582300179,0.00802713219521289,-0.0308571562864636,-0.326713528871722,0.3294671850784,0.0212885970154778,0.197092864354508,0.199723042597432,15.4055007630828,2.35575915662235,2.24086156979202,0.0124958119110018,0.0730245977690627,0.154653856418384,0.497918214516714,1.11821355926181e-06,0.00809675432583908,NaN,NaN,NaN,NaN,3,-103.235441300153,2.33147947975566,stable,stable,1,0.738580133799061,0.0869979164478144,0.0551435211527979,0.957635788336958,0.93126495270294
153,1.45976035462485,2.11445426940918,-0.66641398484869,-1.28410321921372,1.45976035462485,-0.000895373075987255,-0.0013302839067069,0.00160354239658522,-0.0257144466319834,-0.088412206092724,0.0935228859186005,0.00603195863018592,0.121568260153113,0.123218643608861,15.4505687374258,0.903022104067165,0.801718144352748,0.173132990316003,0.240186055478149,0.143570595688945,0.429536495219195,0.159520294398352,0.0359943534263343,NaN,NaN,NaN,NaN,1.53053947457772,-117.277382087191,1.77064251351259,stable,stable,1,0.413913156621733,0.147600113599181,0.172546832572392,0.900039117175842,0.336190846360469
154,2.61607847382041,3,-0.642712145978713,-2.50338508753442,2.61607847382041,-0.0196965899423334,0.0131163815968908,0.0236642160561402,-0.0306745473400911,-0.336089095795172,0.338760633170541,0.0218612258856588,0.196120499512983,0.198024232958914,15.4351538663643,1.58988873130054,1.25522267660242,0.0579361827275562,0.240581538822342,0.117731467105108,0.381424608711449,0.00191889764885164,0.00647796130599504,NaN,NaN,NaN,NaN,3,-102.931426400997,2.21930624973839,unstable,unstable,0,0.737225772943891,0.090720783000701,0.0576409354929993,0.948677461859841,0.347674903508841
155,1.60763000647227,2.54744648933411,-0.747678866124041,-1.40538585856162,1.60763000647227,0.00565750281082108,0.00613860234243548,0.00834804029536291,-0.0322143093306121,-0.105888094267958,0.112685544284499,0.00726771475931781,0.12818389727553,0.130183607071776,15.4662207087711,0.733917219213158,0.85725648718827,0.170906019295565,0.240212449723064,0.141767071784884,0.421252980633471,0.156602736137981,0.0403639981504563,NaN,NaN,NaN,NaN,1.68981233095603,-117.495671617653,1.77138335295404,stable,stable,1,0.454738056473627,0.212989182698063,0.21207254318942,0.902044911230492,0.336992412540051
156,1.61223053952058,2.36577463150024,-0.707085814713038,-1.43701630183586,1.61223053952058,0.00188326799032429,0.00114948053599737,0.00220635532632821,-0.0279497780133898,-0.108434884938029,0.113019923889333,0.00729352391665008,0.115628046858542,0.116519848612126,15.4589528079002,1.59607808191755,1.44075188907583,0.0130775403364097,0.0492850496536464,0.108012998842797,0.425106476911853,0.000213360570091569,0.00542857998915792,NaN,NaN,NaN,NaN,1.64682358488304,-115.230680905002,2.26883820701682,stable,stable,1,0.45323211359458,0.169951919171918,0.104040007510158,0.969600422916847,0.351994222736535
157,1.62371940082974,2.38216972351074,-0.702632288334015,-1.4483590037144,1.62371940082974,0.00987262656098166,0.00834803407980713,0.0129289763017117,-0.0285750047365455,-0.112138267713322,0.117229320219644,0.00756110476369982,0.12979517072622,0.131869864982775,15.4488026461674,0.825786128958445,0.842679113102052,0.172483415794116,0.240195735572106,0.129154146456756,0.403325182040919,0.159439094844715,0.0378623488323968,NaN,NaN,NaN,NaN,1.69535374865113,-115.407012304463,2.33468384095015,stable,stable,1,0.459365813217819,0.173021634925206,0.188442927734252,0.900648922343895,0.34259815713033
158,1.56060953670078,2.52717185020447,-0.704471573637761,-1.37030244940574,1.56060953670078,0.00541445942451025,0.00482508134589397,0.00725243275419785,-0.0297035664435246,-0.104294816362025,0.110793016647094,0.007145368896733,0.166600383526701,0.168437850920002,15.4605070352725,0.687415656095982,0.809922179613892,0.173055818854652,0.240225126715644,0.118907145023118,0.397228640405188,0.159482816515532,0.0362974981009665,NaN,NaN,NaN,NaN,1.65925020896733,-117.23842078182,2.04668876295234,stable,stable,1,0.449850113304208,0.218806133209933,0.215364021929174,0.901707293292097,0.347152379989726
159,2.56870116035144,3,-0.744574003093404,-2.42632165375985,2.56870116035144,0.00514377803728835,0.00592716713353545,0.00784791454628252,-0.037789163956156,-0.308073280365702,0.312155654039497,0.0201569859355955,0.206683322270076,0.209070128710162,15.4164148689705,2.0922187317797,1.87513580149421,0.0188449048912938,0.0598398829463835,0.13371625587724,0.468748560131545,0.000293324707999664,0.00548821892529195,NaN,NaN,NaN,NaN,2.88835322200788,-105.56852442763,2.09774174126425,stable,stable,1,0.726801001835748,0.0984810232544122,0.0612146964623695,0.959405476221487,0.940570552943449
160,1.50501648643438,2.20546531677246,-0.65172897269825,-1.34736267179902,1.50501648643438,-0.00715868744835618,0.000878837896580347,0.0072124310763929,-0.0236748544304588,-0.0963349440430855,0.0999988265601295,0.00644915760973248,0.105134398958496,0.106901694284491,15.4493760342254,0.720813438604504,0.760202189360489,0.170235239848367,0.240145492833425,0.11995665755009,0.423978380862722,0.15665458165361,0.0417006454277918,NaN,NaN,NaN,NaN,1.56544004446909,-115.546181583882,2.37566726514969,stable,stable,1,0.422718068572732,0.158923265856741,0.180142089091412,0.903245828713234,0.346685929977738
161,1.61921465131972,2.55413818359375,-0.727147358520453,-1.42008322960493,1.61921465131972,-0.000626599632501456,-0.0101158187818776,0.0101352067925247,-0.032440339273389,-0.111498966788674,0.118999508284737,0.00767527130533858,0.163525391428871,0.165537399983904,15.4609184165906,0.835807256555174,0.872324624670789,0.171302847452626,0.240230879885463,0.132719694862092,0.39315554776314,0.159443026730183,0.0379831643014384,NaN,NaN,NaN,NaN,1.70136515468512,-117.053321105748,1.5,stable,stable,1,0.464898053682038,0.212215916006954,0.212005176785787,0.900927540064054,0.341013468950181
162,2.57510777513186,3,-0.719512412804656,-2.44007040105419,2.57510777513186,0.00588322241384026,0.00452703150384534,0.00742336313321129,-0.0358059564603953,-0.311395898328494,0.315094291888294,0.0203348164007918,0.20698185030596,0.209462464187896,15.4330858173436,1.64294560950665,1.41763349624118,0.0147786823093518,0.0579337365005133,0.1015463716274,0.452464994394302,0.000204418099485028,0.00421139056659867,NaN,NaN,NaN,NaN,2.85921158454158,-105.062668776886,2.10509129808444,stable,stable,1,0.728587899539409,0.0969617005030866,0.0597992875420024,0.968563251585877,0.354868279276711
163,1.62538688800953,2.59804773330688,-0.722249871413409,-1.43247784590209,1.62538688800953,-0.0040604085819801,-0.00845105915479623,0.00937589028788641,-0.0317964972012336,-0.111934048073118,0.11889768967394,0.00766932396935501,0.158888084140634,0.161049538086544,15.4555390444855,0.8760879872773,0.933990069377798,0.170349979415182,0.240197212702081,0.162412276373952,0.406218696012783,0.159424390129906,0.0343034859273941,NaN,NaN,NaN,NaN,1.71874998102098,-116.787170824054,2.33536808646187,stable,stable,1,0.465646411086517,0.220567603411351,0.215669841431679,0.90060296841869,0.327816766056021
164,2.44529030913556,3,-0.736343303916757,-2.30274151020878,2.44529030913556,-0.0107642653285844,0.0167418587298422,0.0199037494405993,-0.0376256550491412,-0.288871686636907,0.293119932582454,0.0189174508412746,0.214058284770736,0.21568263233234,15.4397316089636,1.60997268460265,1.30727111914046,0.0577382850979151,0.240450241534618,0.114539831165248,0.402599610961389,0.00195541046183593,0.00764788356484605,NaN,NaN,NaN,NaN,2.64390369362176,-106.697557678757,2.40056282421281,unstable,unstable,0,0.695213942235951,0.128458701175275,0.0807253405905717,0.948209656135918,0.349093408371001
165,1.54605181835316,2.44682025909424,-0.634122652349955,-1.38894913216778,1.54605181835316,-0.00236535822189806,-0.000276469266715351,0.00238146063862893,-0.0251533083159412,-0.105722636886776,0.110520535464018,0.00712743646821437,0.152361196157161,0.154278536455257,15.4601215635788,0.680602322290838,0.763004163981932,0.172587648402334,0.240213636374544,0.119618379535876,0.410628977844896,0.159456004839474,0.0346002891830787,NaN,NaN,NaN,NaN,1.65443912380199,-114.70021335318,2.06609731287507,stable,stable,1,0.443136192185227,0.203109500283825,0.205316958993807,0.90236355340669,0.346836275761833
166,1.67372592965762,2.51528978347778,-0.735548177692816,-1.48737694230957,1.67372592965762,0.00709211762806009,0.00735992724966625,0.0102208933841725,-0.031009707553078,-0.116965387661059,0.122500715344861,0.00792276587701541,0.129841685103937,0.130786588891463,15.3452530539469,3.03835433554054,2.4107854122451,0.0155488429917599,0.0718921572458695,0.16897601418931,0.4938084124529,1.46224349413879e-14,0.00798008495775728,NaN,NaN,NaN,NaN,1.6985678915868,-115.061450151433,2.32395885759181,stable,stable,1,0.472484232353657,0.191225697563302,0.117637267613536,0.949410909057233,0.924899549249196
167,1.47828688709824,2.18150877952576,-0.664812980663789,-1.3093185527139,1.47828688709824,0.0117434356705504,0.00675641357533803,0.0135483359033266,-0.0246860775431202,-0.0919282465914913,0.096198265193111,0.00620450291517513,0.103283600477338,0.104947069105267,15.4708672625547,0.862409956750343,0.830093381014246,0.17247257856733,0.240164887968041,0.146020124881632,0.384877769469292,0.159394584642468,0.0348263568369669,NaN,NaN,NaN,NaN,1.53242316823457,-117.234742424214,2.28899333444766,stable,stable,1,0.415199250380584,0.160708787378467,0.179931439804852,0.900465470205328,0.335102166719275
168,1.65829811493556,2.53327465057373,-0.80064234397645,-1.42812343746365,1.65829811493556,-0.00595203070269346,-0.00495756950574148,0.00774623553024715,-0.0387704819269,-0.113036853236489,0.122510969352052,0.00790094547176767,0.173874202042682,0.176044269726405,15.4593018821471,0.735271445504185,0.779662310840624,0.172877726020774,0.240206888516569,0.113033326666607,0.408910875711804,0.159449945794339,0.0375167695693537,NaN,NaN,NaN,NaN,1.76822611766951,-118.998443980142,1.7821031004688,stable,stable,1,0.477421684594763,0.198289863699134,0.203483022456325,0.901658086046904,0.349762965925953
169,2.4622003865242,3,-0.774903688854808,-2.30251751476316,2.4622003865242,0.00460632724682861,0.00310560355776277,0.00555544995143187,-0.0406387812562421,-0.280121549623553,0.285286785957575,0.0184024120244295,0.224373298197454,0.226569416391879,15.4459264159817,1.10904801559816,0.92383437433609,0.0316493330088498,0.052877647124309,0.0852728897315147,0.417269693745233,0.0137699333302238,0.00482181449573702,NaN,NaN,NaN,NaN,2.66549340284327,-107.193726307889,1.5,stable,stable,1,0.701900653018163,0.122023412189817,0.0810874047722377,0.968202686146092,0.362100937897105
170,1.71085272566245,2.44756412506104,-0.733316325524755,-1.53350218459686,1.71085272566245,-0.00432836010532938,0.00353282063906772,0.00558708536441227,-0.0299542686357869,-0.124351833521489,0.12907904744006,0.00832452198934773,0.118697219259924,0.12093153676294,15.4673409542559,0.815912878715868,0.734719300954616,0.16881837604119,0.240220652113664,0.126112260275515,0.422896576789368,0.156641817299816,0.0412700012504239,NaN,NaN,NaN,NaN,1.77840570795084,-115.675983280215,2.44317777842056,stable,stable,1,0.480413700862576,0.166784363848156,0.184696476957451,0.903407273424851,0.343950106544216
171,1.6121718733399,2.45262932777405,-0.753983686961296,-1.40269925764816,1.6121718733399,0.00233528983147099,0.0102431213195611,0.0105059560709257,-0.0340723219363853,-0.108837048985364,0.116666362297245,0.00752431934949544,0.161224917597418,0.163151178708533,15.4647750478605,0.736394758832466,0.893277002098578,0.172758233609311,0.240232136737031,0.159222350146667,0.407208789443767,0.159623129208546,0.0381974683568947,NaN,NaN,NaN,NaN,1.68221562017466,-118.331726157389,2.03530588452973,stable,stable,1,0.462542735299013,0.19102901919402,0.199451012991404,0.900816319359458,0.329234511045926
172,2.41648416121801,3,-0.864606531975077,-2.22566631521537,2.41648416121801,0.00877470667285345,0.00639688818970163,0.0108588975364059,-0.0475665046792373,-0.263035723550329,0.269975652313077,0.017422478233993,0.2197411920642,0.221758568054799,15.4496933607585,1.67480841458108,1.39884049460268,0.0184113565036531,0.0516146305200682,0.100478379242436,0.448797074375181,0.00039376125247172,0.00610344209683651,NaN,NaN,NaN,NaN,2.5789773418386,-109.450212225276,2.03954876297398,stable,stable,1,0.688747489935762,0.133281861607623,0.0823635554554309,0.966644223176015,0.355342942558917
173,1.52380239831077,2.07079839706421,-0.696281513822601,-1.33738668446621,1.52380239831077,-0.0106316738832531,-0.0270649350184652,0.0290782254808231,-0.0281038017122027,-0.0960256512042116,0.102069365055046,0.00658304475385093,0.135122946424332,0.136902412122302,15.4079049638691,0.770877885675101,0.810059296999697,0.172406648813804,0.240193338945497,0.149104478191453,0.459307061266811,0.159541443292854,0.0347568870868767,NaN,NaN,NaN,NaN,1.60572032516396,-117.151648626796,1.9537416330649,stable,stable,1,0.433727788640665,0.128405107724342,0.160589240796354,0.901375026300653,0.333731343026021
174,2.37820097102838,3,-0.767303888521351,-2.2183719660252,2.37820097102838,-0.0271614196344609,-0.0176841577762704,0.0324109881493191,-0.0364490858815235,-0.254847326037771,0.259576430142482,0.0167636593454184,0.230348844927213,0.231860856935347,15.3218286361856,2.26237641449267,1.42458182461248,0.0592043509069062,0.240148532071661,0.150902551859739,0.481414174284145,0.00189579940831897,0.00647742450281669,NaN,NaN,NaN,NaN,2.36078838964489,-107.709824257803,1.83856738750911,unstable,unstable,0,0.680559096994638,0.145846796012655,0.090706082214335,0.941428866953578,0.332932199173449
175,1.59745205729096,2.54729676246643,-0.74470304370935,-1.38762467623752,1.59745205729096,-0.000955685096220384,-0.00999725627476885,0.0100428316239267,-0.0338821330162604,-0.106694482920353,0.114876572495889,0.00741071357656951,0.168920262286996,0.17100947613672,15.3736411425233,1.0375575315137,0.952778916820856,0.172360550937239,0.240194269554149,0.126018476627386,0.479282502074353,0.159451290231379,0.0367841005783668,NaN,NaN,NaN,NaN,1.70036876942666,-118.357386427334,2.07218263077658,stable,stable,1,0.460189110504933,0.215556244462201,0.213577023354107,0.898181366723037,0.343991788165606
176,1.77156916419665,2.48707675933838,-0.88786860302896,-1.52030854721709,1.77156916419665,0.00306955737044134,0.000639056454789585,0.00313537487437132,-0.0431598941107503,-0.121515924948251,0.130604438308088,0.00843046517550947,0.123502739864905,0.124500834137223,15.4344688030358,1.76075684152683,1.83046972032187,0.0156744461691956,0.0538961238350177,0.117123040157515,0.404473149010356,0.000228971763772239,0.00559740185408759,NaN,NaN,NaN,NaN,1.79740384781532,-119.424856454763,2.2000099056571,stable,stable,1,0.497318610613218,0.161564027633857,0.0990756006646893,0.963945996786591,0.347945315485549
177,1.91277779208289,2.71050381660461,-0.945589887217695,-1.64824053249936,1.91277779208289,0.00651929154091753,0.00306563172933375,0.00720411410899194,-0.0489231808794209,-0.143799477906385,0.154038099725498,0.00993557412369497,0.128162569400284,0.130892418343285,15.4084683891262,0.903773123983889,0.938497034020237,0.171955266643145,0.24026545969165,0.14635044609406,0.473415139526123,0.159482783657886,0.0380777544746326,NaN,NaN,NaN,NaN,2.00389774569212,-119.82849383685,1.66210693903546,stable,stable,1,0.536252561557428,0.180809109770703,0.193213159216298,0.899547386865538,0.334955357291529
178,1.81577474452831,2.65035963058472,-0.939252419171852,-1.53270103153824,1.81577474452831,0.00628583415192351,-0.00211096016874931,0.00663082678250112,-0.0499994274469065,-0.126747005249826,0.139492290497573,0.00899696539192133,0.158966103728725,0.161374598791226,15.4533252473593,0.825602798493269,0.891710741873855,0.171840790900961,0.240233653729174,0.156754877839444,0.417516001124188,0.159487474832596,0.0362853137604352,NaN,NaN,NaN,NaN,1.88108853169074,-121.75609313085,1.50073180737713,stable,stable,1,0.516481518299128,0.188997250939483,0.19747633226076,0.900586426732349,0.330331165404692
179,2.49426002502441,3,-0.656694430134862,-2.37405520098473,2.49426002502441,0.00722521122496808,0.00422231148619143,0.00836848800750941,-0.0315178254456501,-0.296683215444451,0.299743045014642,0.0193504403764048,0.216874315135546,0.219236208790783,15.4188342682907,1.78894150095673,1.81521140343678,0.00778752864916676,0.0527836850206936,0.121579982739224,0.458310863350673,0.000223893941204643,0.00534277988947834,NaN,NaN,NaN,NaN,2.73243854491602,-104.018907315581,2.46919328767857,stable,stable,1,0.708983248431334,0.115325717170884,0.0712377677715627,0.96778789142661,0.345964452115901
180,1.76400375807727,2.45588874816895,-0.867145717213441,-1.51902255210476,1.76400375807727,0.00685901156495454,0.0031565649151855,0.00755049281252292,-0.0423129710516762,-0.123757233909223,0.133126939384618,0.00858566160412511,0.133707562170661,0.136093842421053,15.4670897298307,0.747119799108624,0.815606665639534,0.1716317849976,0.240228975126754,0.126766798581329,0.380162889770714,0.159477137452635,0.0377794513022369,NaN,NaN,NaN,NaN,1.85620598441334,-119.444845846151,1.66934600861951,stable,stable,1,0.497619770638149,0.157058379786257,0.178851737920203,0.901905542421036,0.34365920063052
181,1.79455294167554,2.50914645195007,-0.86121858983488,-1.55891641026698,1.79455294167554,0.00956867473381233,0.00110417854801587,0.00963217246665553,-0.0412217937595924,-0.128584869254223,0.137069678998394,0.00884125644789693,0.121293517350614,0.123688355238825,15.4570314663073,0.927924000778071,0.958249648284758,0.171870991535312,0.24023128557635,0.168624765024033,0.44056509362431,0.156650366214937,0.0415578191967043,NaN,NaN,NaN,NaN,1.8944468966032,-118.434379956689,1.55733955048476,stable,stable,1,0.503285122161242,0.162549438097324,0.182263982096158,0.899244568418279,0.325055659989319
182,2.43797850648562,3,-0.449532512940111,-2.36245470121302,2.43797850648562,0.00807838070556317,0.00469007355727021,0.00934114686730813,-0.0196344432719314,-0.295252968116399,0.296635792281372,0.019143957701924,0.222710708066559,0.225001641834992,15.4077800973746,1.65563763804677,1.40002738604831,0.0221807067161908,0.0709107064697837,0.103919940151673,0.473773850716807,0.000156348285922229,0.00380466168663541,NaN,NaN,NaN,NaN,2.61222307005049,-99.3162222201901,1.88030804884272,stable,stable,1,0.695127930096497,0.128167379633075,0.0783534292475163,0.964900850024015,0.35381335993259
183,1.76886912849214,2.62565970420837,-0.903694552390316,-1.49324619246554,1.76886912849214,0.0038197233802223,0.00243336194950038,0.00452896644707081,-0.0480746663860873,-0.123695583684774,0.136908437088898,0.0088309313082713,0.181709247673076,0.18407066871256,15.3649581211287,1.02780874382028,0.951990287074381,0.172032501339187,0.240257371391794,0.125981775279565,0.476829545613473,0.156655900584829,0.0429465126902597,NaN,NaN,NaN,NaN,1.87171872539055,-121.350351106356,1.5,stable,stable,1,0.508512568007084,0.193608190051448,0.201406672440786,0.898428185516234,0.344008099875749
184,2.53793612092432,3,-0.279115440032934,-2.48403839871882,2.53793612092432,-0.0226865065301999,-0.0134591529848185,0.0263785211415187,-0.00949470502388644,-0.31676884599776,0.317271423121305,0.0204647084749078,0.225566019456871,0.227586339512991,15.4564324201591,1.16554726411901,0.70324143684423,0.0588015810551385,0.24025607306728,0.0880861207894426,0.443897364456922,0.00189181460504693,0.0104912656062061,NaN,NaN,NaN,NaN,2.70378156394852,-95.0700514349474,1.5,unstable,unstable,0,0.722300233482418,0.108800435001306,0.0699360731668994,0.955915869679148,0.36085061298247
185,2.0465069188012,3,-1.14722417471876,-1.6628671129349,2.0465069188012,-0.00397607742014072,-0.00333286012853839,0.00518817388754019,-0.0758597725139256,-0.15282790683649,0.177259164044162,0.011432821863351,0.193913609972183,0.197070578078417,15.4503502459983,0.999815932950841,0.829696771984233,0.172752568375969,0.240352133092387,0.134390980017508,0.432385740409097,0.159476306556756,0.0351885823333094,NaN,NaN,NaN,NaN,2.15708888634091,-124.745911655981,1.76326251418335,stable,stable,1,0.585149293962671,0.215487108482445,0.21296647168034,0.899248973130383,0.340270675547774
186,2.05022245407104,3,-1.13209129556775,-1.67397658454482,2.05022245407104,0.00966084774929363,0.00427063408381668,0.0105626840676453,-0.0747996270288777,-0.152393320165935,0.176566374559959,0.0114047567156981,0.212234821441169,0.213566886467788,15.3783112262829,1.98941980618006,1.76083289324838,0.0319229474274455,0.0732947953324355,0.139247920068377,0.500328123480023,0.010924656049338,0.00367510261594532,NaN,NaN,NaN,NaN,2.10837557196529,-122.363616262261,1.5,stable,stable,1,0.589439365045836,0.215636439913083,0.135573667587697,0.954572255076482,0.338112035525166
187,2.02280497197752,2.88024139404297,-1.07059535553223,-1.70018811081296,2.02280497197752,0.00502393656000096,0.0158892261882317,0.0166645566223558,-0.0628079932348953,-0.153228168889808,0.168452093575612,0.0108641275434441,0.135573875068658,0.138518914511148,15.4721099257038,0.835745081358348,0.861947389289527,0.172197434686074,0.240289329245182,0.137864182303953,0.397578249554207,0.159533813510614,0.0380827034264873,NaN,NaN,NaN,NaN,2.09849345512064,-122.244984043751,2.18203825798905,stable,stable,1,0.567118442096234,0.195978363678825,0.202339191114574,0.900562270387587,0.338727030087132
188,2.00055586055473,2.82460927963257,-1.09685031080695,-1.65866005158231,2.00055586055473,0.00137180346789933,1.06896395566297e-05,0.00137184511623379,-0.0651762720915248,-0.145651448126034,0.16213383668992,0.0104615319076842,0.125209695901762,0.128126621361735,15.3790865270859,1.14092926310626,1.25065772448919,0.171016362836246,0.240331933743622,0.170641781037855,0.507016544492637,0.156721458899623,0.0408242924970824,NaN,NaN,NaN,NaN,2.08252249604559,-123.526280590972,1.59870194765548,stable,stable,1,0.559106887086942,0.18566352423049,0.195897293543126,0.895700777965056,0.32415920842762
189,2.49237841089567,3,-0.771242510072561,-2.33402152903292,2.49237841089567,0.00581575609393528,0.0036091258686462,0.0068446189433654,-0.040664892695117,-0.286956335022852,0.292094829222934,0.0188619123195234,0.216798922347295,0.21903855636104,15.3726139325762,2.06703867223885,1.79507186185025,0.0181117506613096,0.0506373685459872,0.122509151558705,0.443383069041574,0.000136525965901948,0.00639367811571492,NaN,NaN,NaN,NaN,2.71977714743149,-106.924123588306,2.10652704303029,stable,stable,1,0.708441954177719,0.115469704354759,0.0716674746801829,0.960598970472931,0.345551488196131
190,1.98285652960048,2.73204851150513,-1.03776784951713,-1.67458808517838,1.98285652960048,-0.00456989378566734,-0.0106969256301657,0.0116322030221956,-0.0584378057042312,-0.148984737028842,0.162553918412983,0.0104879116256286,0.134135182826704,0.136989316982706,15.3660623126374,1.17450769887259,1.15165489342311,0.171148157397107,0.240290959105825,0.147795109050611,0.460349442623328,0.155829728000505,0.0432485126850276,NaN,NaN,NaN,NaN,2.06580628279313,-122.281189709167,2.36217296148362,stable,stable,1,0.556159604623336,0.170700766482615,0.187404848664147,0.896148929504838,0.334313284866395
191,1.97962235786297,2.79218411445618,-0.950470968353283,-1.72204420880936,1.97962235786297,-0.00901482575194961,-0.0101743460556793,0.01359354262136,-0.0500021484024532,-0.157497215914979,0.167239044790715,0.0107856526479726,0.137802116194863,0.140766419069282,15.445183029473,0.810998516665305,0.83978119545374,0.172732635465181,0.240281575501058,0.127513455669515,0.483751449748342,0.159469288515483,0.0350310955642499,NaN,NaN,NaN,NaN,2.07634549688122,-118.754548572983,1.52564761183062,stable,stable,1,0.556052579243981,0.185318544714055,0.19480494637383,0.900663270243617,0.343327353035771
192,2.47358133474986,3,-0.950718156302062,-2.24817084031776,2.47358133474986,0.0048707414438269,0.00242721218320125,0.00544201076762014,-0.0562928838613894,-0.267275833237018,0.276655301154863,0.0178548300681384,0.218918180873377,0.221015089248731,15.4595833177411,1.6583944466892,1.44123529655293,0.025551060962842,0.0526697906744678,0.101318921546408,0.372258405410772,0.000227894093319056,0.00527766473819612,NaN,NaN,NaN,NaN,2.68099720733185,-111.612146549017,1.78663860105039,stable,stable,1,0.703824707116375,0.119441901655346,0.0736855780707943,0.962870235821677,0.354969368201596
193,2.0311638602504,2.91086220741272,-1.01778105909477,-1.73717231329194,2.0311638602504,0.00401330391691354,0.00164740570985421,0.00433826623230684,-0.057647431717504,-0.161455270518899,0.174769465019494,0.0112718752083266,0.145967972361565,0.148989836367703,15.4626288004126,0.920563317242449,0.882458983165036,0.172651181585465,0.240332208995047,0.167932876240938,0.407754203310941,0.159492202842973,0.0363340763420002,NaN,NaN,NaN,NaN,2.11900443077325,-120.570247299149,2.11902583596458,stable,stable,1,0.571441663340314,0.198727476920778,0.203334301035323,0.899507805418352,0.325363166115139
194,2.44860283113981,3,-0.960893477456971,-2.21984943904119,2.44860283113981,-0.0169759701434482,0.0117299415745386,0.0206343182987307,-0.0572086730951341,-0.266485540092805,0.276248137067888,0.0178185242163166,0.221657222423482,0.223168304885547,15.4251663590652,1.12466682718797,0.909378177737769,0.0564837315261076,0.240424681050045,0.0844592817205838,0.520746135077384,0.00191805240608656,0.0110435249427602,NaN,NaN,NaN,NaN,2.61715863552686,-112.220792726245,2.23627541465589,unstable,unstable,0,0.697594415947726,0.12784732134831,0.0815766877969372,0.955776352055387,0.362462541457518
195,1.99345707804409,2.79626202583313,-0.964797732818019,-1.73036728548745,1.99345707804409,0.00698771416825005,0.00602586023647112,0.00922708734577961,-0.0516772918020212,-0.158621453219657,0.168836269555059,0.0108940079951108,0.12964229681597,0.132729498686837,15.4008824085318,1.20875627004053,1.15710434274366,0.172808220270517,0.244404852399679,0.143166655538759,0.468449062704725,0.159505488076042,0.0343870674109034,NaN,NaN,NaN,NaN,2.08957514186263,-119.371133784789,1.80791591770432,stable,stable,1,0.558134453882459,0.182322745932593,0.192789363742771,0.895006985050009,0.336370375316107
196,1.95026879469554,2.66395688056946,-0.916772034933516,-1.6982583105788,1.95026879469554,0.00633339103140278,0.00546219144450516,0.00836345486823947,-0.0482751786799843,-0.152256879557555,0.162648809961399,0.0104948246638423,0.158658685851305,0.159937105459531,15.4591622080564,1.38988732167085,1.33157445787405,0.0263076196333627,0.0481452714006004,0.105016764788979,0.410037823662698,0.00293559369280464,0.00789078365620196,NaN,NaN,NaN,NaN,1.98818975952798,-117.123132335998,1.68231539299939,stable,stable,1,0.552059099677382,0.16211311938081,0.101441955811381,0.96546327620118,0.353325882316009
197,1.89627900565112,2.58233904838562,-0.805171746632552,-1.70487208106559,1.89627900565112,-0.00792908492946294,-0.0113826377803455,0.0138720881866136,-0.0361626715023615,-0.153914442691158,0.159329737080827,0.0102776087410691,0.129818745811206,0.132666332457586,15.436190804455,1.04531183597567,0.925856489589322,0.171007694089189,0.240258600994495,0.157243136587724,0.383739600595427,0.156741465874233,0.0396531166898039,NaN,NaN,NaN,NaN,1.96491164649544,-115.571452830696,1.5418037583815,stable,stable,1,0.532207667998483,0.156906725782808,0.178226224351495,0.899008401825966,0.330114161516567
198,1.81982850502519,2.52043414115906,-0.789551544769295,-1.62689196924752,1.81982850502519,0.0046233730124911,0.00534952835745783,0.00707057505864103,-0.0347246939017189,-0.140543863965137,0.146063427168695,0.00941942994910593,0.120713934762302,0.123263093824895,15.4662432303759,0.776968508919717,0.732454226321403,0.171210020706499,0.24028272772029,0.123505905239809,0.419383849627043,0.156634452318442,0.0417865646127229,NaN,NaN,NaN,NaN,1.88489007794024,-115.359098105949,2.34440764562072,stable,stable,1,0.50994022010503,0.158932540224204,0.180169950680679,0.902535239584142,0.345108486560085
199,2.50828233480454,3,-1.11786803526363,-2.2101811276992,2.50828233480454,0.00548183863725864,0.00263309253352005,0.00608142509080074,-0.0733480074878685,-0.257541209139882,0.272732602819855,0.0175964772458539,0.202184700345111,0.204205181800158,15.4499250149581,1.37567275290749,1.1093700373841,0.026398374640264,0.0484187358202436,0.0941075536109483,0.430707743350935,0.00701499092136585,0.00417011881633184,NaN,NaN,NaN,NaN,2.68563096804021,-116.007396076949,1.68485275537697,stable,stable,1,0.709716325641241,0.111751402602293,0.0716850221465076,0.967275476470434,0.358174420617356
200,1.87858998775482,2.74967670440674,-0.807186014290514,-1.67648886392221,1.87858998775482,0.0109218742075884,0.00699876534356274,0.0129718947166804,-0.037900011867185,-0.15032432079087,0.15712856682809,0.0101356279568564,0.147598079330406,0.150236263400672,15.4446412582103,1.05770768933629,0.965280733976408,0.170668395959894,0.240286116939043,0.152530099270828,0.422906269961315,0.156687199979353,0.039416688298573,NaN,NaN,NaN,NaN,1.97177383483815,-114.893051128023,2.2204069965801,stable,stable,1,0.531004582748087,0.198372691944739,0.202995711912704,0.898770892979739,0.332208844768521
201,1.80380775751891,2.37619781494141,-0.758261310859813,-1.62418354725116,1.80380775751891,-0.00195580480858144,-0.00842319984138533,0.00864728096092547,-0.0325031519673773,-0.138842357085095,0.143801451645972,0.00927541909253429,0.122236870207842,0.124878978510452,15.4307619518868,0.909905473942431,0.950843451656044,0.171834716187647,0.240233657201818,0.13928768322632,0.470124149261368,0.159482177465823,0.0364682695384253,NaN,NaN,NaN,NaN,1.87135485490829,-114.338554000358,1.85988082798067,stable,stable,1,0.505991197707133,0.130373097762898,0.162366015343391,0.899462471776474,0.338094363010524
202,2.33842851161957,3,-0.951218079107454,-2.10300810068696,2.33842851161957,0.00635226817783023,0.00735620598256666,0.00971931466004801,-0.0559613106645301,-0.236886466230973,0.247170046604583,0.0159575846915454,0.228189684298783,0.230044190083814,15.4258011441005,1.76019942983003,1.73819695032281,0.0111454206434067,0.0560266185284805,0.12046304700761,0.436561698884602,0.000329163546823604,0.00562945387313521,NaN,NaN,NaN,NaN,2.45321237213052,-112.912057666969,2.34410554155165,stable,stable,1,0.669589774448648,0.150635459239939,0.0925746445893485,0.966939889548524,0.346460867996618
203,1.78700815924892,2.64093160629272,-0.651891202284787,-1.64642439447902,1.78700815924892,-0.00326441039109657,-0.00142150540300165,0.00356048491251713,-0.0252159942338199,-0.14456640103877,0.147909707788697,0.00953914104668302,0.132740063649819,0.135254806849114,15.4650861567321,0.87024464430857,0.736779135994062,0.17176902510204,0.240265102714693,0.128210725643661,0.378851412381064,0.159491765359952,0.0361823030867628,NaN,NaN,NaN,NaN,1.87029192840855,-111.765439209843,1.95813638685567,stable,stable,1,0.503586470502867,0.192785531152151,0.199713748862618,0.901488872032317,0.343017455269484
