scenario_id,mean_wind_speed,max_wind_speed,wind_velocity_x,wind_velocity_y,wind_velocity,wind_acceleration_x,wind_acceleration_y,wind_acceleration,mean_abs_roll_deg,mean_abs_pitch_deg,mean_abs_vz,max_abs_vz,mean_tag_error,max_tag_error,stability_std_z,stability_std_vz,mean_imu_ang_vel,max_imu_ang_vel,mean_imu_lin_acc,max_imu_lin_acc,wind_speed_cmd,wind_dir_cmd,hover_height_cmd,gt_safe_to_land,label,success,onto_wind_condition,onto_gust,onto_temporal_pattern,onto_drone_state,onto_tag_observation,onto_landing_context
1,2.02899906343343,2.68869137763977,-1.25370855354312,-1.57730085749826,2.02899906343343,-0.0595238188046771,0.0144349297835848,0.0612490996092927,0.895466322355324,0.951917041304163,0.176215908814613,0.240261085461271,0.128008401660559,0.395523556212078,0.156751829796941,0.0426255930198038,NaN,NaN,NaN,NaN,2.0716688985117,-127.374480982322,2.31472368639318,stable,stable,1,0.630418855321914,0.159659772291463,0.180963558928194,0.897376890592512,0.343107377039752,0.567592204784128
2,2.30038974404335,3,-1.38942263384636,-1.79525620135444,2.30038974404335,0.00896820074884679,0.0059965622587945,0.010788298456903,1.62409246749121,1.61873754030358,0.0174338016732462,0.0841666500922387,0.115494090061601,0.487305716638489,0.000229211468044076,0.00495130472278584,NaN,NaN,NaN,NaN,2.42882567996652,-126.095851442396,2.36330248122722,stable,stable,1,0.713372547617433,0.159390162307345,0.0975364435926316,0.965803720530704,0.348669293305955,0.794919096175201
3,1.79606667424546,2.47910451889038,-1.10313089515528,-1.39589157706091,1.79606667424546,-0.058025124303927,0.0157876479846157,0.060134556449452,0.761203092216201,0.911179465069951,0.177364038128462,0.240220495941798,0.145813839429705,0.462701003994925,0.15945761845034,0.0349125604769235,NaN,NaN,NaN,NaN,1.87319628751653,-127.297520073929,1.68491561280515,stable,stable,1,0.558183808666579,0.164708183727507,0.182390439418163,0.898177832271378,0.335193849142353,0.575302153189864
4,2.27426487193119,3,-0.652118252943906,-2.14585647272777,2.27426487193119,-0.0184633050645813,0.000606979969539083,0.01847327958407,1.09272963727011,0.914073880545505,0.0630778773032429,0.240267295687211,0.125002073107581,0.386305760028247,0.00189935584902865,0.0063589471234684,NaN,NaN,NaN,NaN,2.46779887999601,-105.553838771394,1.76562841684973,unstable,unstable,0,0.705453153488964,0.166677171739228,0.103162805607195,0.952693319422684,0.344443523063298,0.568667107182918
5,1.82349998003816,2.60472440719604,-1.06448743245909,-1.46449102048905,1.82349998003816,-0.0358415260036032,0.00861207456608544,0.036861671348418,0.816021138078324,1.06360894746829,0.177267566008218,0.240264403902564,0.161218366934654,0.413136767758969,0.159504967541486,0.0375589153116452,NaN,NaN,NaN,NaN,1.88084050141636,-125.058018224367,2.43388993827952,stable,stable,1,0.566145099476626,0.182533469191068,0.194068965585798,0.896597694895168,0.328347392473487,0.574580825634438
6,1.87635747432709,2.65695571899414,-1.03559609946448,-1.54321227517607,1.87635747432709,0.00522072173510251,0.00468621440940243,0.00701545015849038,1.74844409299879,1.8110534469963,0.0186759777531952,0.0514385847510758,0.119790075446666,0.424600048414871,0.000154260769543749,0.00474859906316136,NaN,NaN,NaN,NaN,1.9161886291726,-122.783489357006,2.2884907766712,stable,stable,1,0.581834510878429,0.176920770912477,0.107947786185201,0.962694530452012,0.346759966468148,0.808299791274398
7,1.92620383476724,2.55541205406189,-1.08047811625011,-1.57902932134494,1.92620383476724,-0.0437461511958497,0.0075887367177599,0.0443994895175791,1.15147545578378,1.17623895656268,0.176640288042873,0.240264850858877,0.142845681560371,0.467217152326781,0.156681253541589,0.0425753956727943,NaN,NaN,NaN,NaN,1.96867067391655,-123.586570068552,2.32906792382941,stable,stable,1,0.598159176866589,0.149711755752851,0.174945128199696,0.893390671310127,0.336513030417613,0.570629985000026
8,1.90912282142509,2.76051497459412,-1.10665211256692,-1.53165036228285,1.90912282142509,-0.0540775055580461,0.0111283074837058,0.0552106496505195,1.16017843412334,1.28614526047798,0.17673631084671,0.240280603062677,0.157433692242558,0.499285910135668,0.156687328101641,0.0432263142606652,NaN,NaN,NaN,NaN,1.96461919299708,-125.030810267647,1.85031636382627,stable,stable,1,0.593116323133625,0.201685186898959,0.206368584360144,0.892410729833349,0.330029470114419,0.570848931409803
9,2.60626791079839,3,-0.79903946866933,-2.4464365795566,2.60626791079839,0.00414179575228028,0.00481066248933276,0.0063479875267584,2.09051663544562,1.79126557704025,0.0179935743572728,0.0592545655992199,0.130304281780593,0.421662965299935,0.000198887965739559,0.00681614345735643,NaN,NaN,NaN,NaN,2.98365709536118,-106.900241715489,2.33094160432283,stable,stable,1,0.808091172056459,0.0897535177836011,0.0564191029424574,0.960503495437546,0.342086985875292,0.784260727432966
10,1.85431208821381,2.85782694816589,-1.10960757478516,-1.45575061909665,1.85431208821381,-0.049255871889337,0.0140573314122077,0.0512225485700528,1.16670806080645,1.1960232580392,0.176945493498075,0.240325219269246,0.170971333359601,0.466079755875067,0.15660395312909,0.040213053828186,NaN,NaN,NaN,NaN,1.92399487038037,-126.353098118705,1.72055581642432,stable,stable,1,0.576031940146249,0.235181644060395,0.225333672047294,0.892962935745746,0.324012740729066,0.572782902894937
11,1.84839010887406,2.68980884552002,-1.14115445663308,-1.43980448239769,1.84839010887406,-0.0359223233238148,0.00481252406469377,0.0362432573157263,0.79834152622232,1.0829851874491,0.17698105010347,0.240233260404567,0.176097735061485,0.483527113817102,0.156645071995714,0.0422010284389537,NaN,NaN,NaN,NaN,1.90759543141243,-127.844704273722,1.74596074505347,stable,stable,1,0.573846609754991,0.195963812919892,0.202544148273286,0.89672762219799,0.321734339972673,0.573802207788266
12,2.61938963532448,3,-0.782634153796617,-2.46594774558075,2.61938963532448,0.00848321338633697,0.00451782372227619,0.00961122471611647,1.88822140921531,1.59393815363615,0.0303850835120751,0.0545761757175003,0.127823792980612,0.447885703212889,0.00658159566822503,0.00533817198091804,NaN,NaN,NaN,NaN,3,-106.299635778902,1.8300732064517,stable,stable,1,0.812235048860631,0.0873993899166137,0.057305941027897,0.957447633107272,0.34318942534195,0.783318785385513
13,1.98561427139101,2.65274739265442,-1.04838763088957,-1.67048733128575,1.98561427139101,-0.0502778755455398,0.00515686273350234,0.0505416462199737,1.24529526177389,1.18044318777972,0.176288048323627,0.240256704319351,0.181120981173974,0.475997458310279,0.15772268833085,0.0423280132019597,NaN,NaN,NaN,NaN,2.02726066309477,-121.319262228342,1.90818818825388,stable,stable,1,0.616719729209678,0.15937092075793,0.181113529846959,0.892796602305979,0.319501786144901,0.56850254771684
14,2.67340476930576,3,-0.723377716805962,-2.53561088115395,2.67340476930576,-0.0236309843770014,-0.00976286678631652,0.0255682809456062,1.34273341558589,0.999471059901818,0.0628337452958556,0.240399478386233,0.0999447826688691,0.438177078706799,0.00188996613760904,0.00887642251310307,NaN,NaN,NaN,NaN,2.96211416560549,-104.652706865072,1.90706451209766,unstable,unstable,0,0.829352071706851,0.078171445079564,0.0509706420025516,0.950180092187526,0.355580096591614,0.555193913909143
15,1.72483470083094,2.49922275543213,-0.928510719879026,-1.42553195658312,1.72483470083094,-0.0584261436838254,0.000949749467013155,0.0584338625269039,1.13132169757781,1.16263749375632,0.177270098075943,0.24025470745947,0.170242709368135,0.493613036241099,0.15665763202464,0.0419807110605872,NaN,NaN,NaN,NaN,1.78867162897179,-121.8764556945,1.5,stable,stable,1,0.536062214049886,0.184950187081867,0.195861439595234,0.89334098588726,0.324336573614162,0.576921427511863
16,1.75353347619375,2.69504404067993,-1.00066683619448,-1.40962301618637,1.75353347619375,0.00552513525662634,0.00162510541148628,0.00575917417712448,1.82762971855385,1.94879908403592,0.0179639159165726,0.0723585685613896,0.123807366255553,0.524083235098564,0.000277638308025214,0.00316746352258657,NaN,NaN,NaN,NaN,1.79698325918466,-123.928221238646,2.31283853134156,stable,stable,1,0.543729758350861,0.212895725608531,0.12901263508599,0.961346101449937,0.344974503886421,0.812111291693094
17,1.85800979656427,2.80355048179626,-1.01713993093936,-1.53508235352321,1.85800979656427,-0.0590720263858723,-0.00920315016046365,0.0597846324251411,0.901215290739138,0.973536158577567,0.176466195512584,0.24023363746128,0.153464497697222,0.401204899513395,0.156545827826677,0.0414412102337915,NaN,NaN,NaN,NaN,1.90606506718967,-122.683382350962,1.51800994694466,stable,stable,1,0.57737801169151,0.223707170121808,0.218869756545714,0.897036712284791,0.331793556579012,0.57312395738694
18,1.82680282219738,2.56104755401611,-1.04679658183778,-1.48011705519256,1.82680282219738,-0.0481048564163306,0.00421452312548569,0.0482891231646531,0.796129792528457,0.928151043121176,0.176336758636488,0.240224187989423,0.144492791836938,0.491624313609586,0.159481552471965,0.0375823548778636,NaN,NaN,NaN,NaN,1.87952489310621,-124.36494621675,1.58954533394655,stable,stable,1,0.567435621088362,0.174058070572736,0.188981843195859,0.898283699830223,0.335780981405806,0.574526403597737
19,2.61801833470662,3,-0.782060577670527,-2.46105503159158,2.61801833470662,0.00924324270427445,0.00368152085638769,0.00994942870250048,2.15729906108657,2.15846408180218,0.0204055791146461,0.0731736732442658,0.131893334871201,0.51124632236419,0.000249702077206065,0.00807272604932476,NaN,NaN,NaN,NaN,3,-106.031594526481,2.24350719171226,stable,stable,1,0.811817837095445,0.0877699366198013,0.0557084774180702,0.955887642891408,0.341380740057244,0.783123435553452
20,1.88184747322887,2.62825632095337,-1.01684679847455,-1.5610185601434,1.88184747322887,-0.0512000616369888,0.0156836704605967,0.05354833172703,0.736514379867472,0.767712936161176,0.177365921953822,0.240262011512485,0.135650141767978,0.371493116400631,0.159504830418218,0.0346825845262414,NaN,NaN,NaN,NaN,1.95533603544456,-121.682915799118,2.3430415401618,stable,stable,1,0.58462217777458,0.177759184887968,0.190158395592844,0.899498110111435,0.339711048103121,0.572827577831554
21,1.93931862367254,2.76574039459229,-1.08859521703347,-1.58169261355689,1.93931862367254,-0.0516530040680249,0.0136533865245799,0.0534270324165677,0.922989793821597,0.984599834488449,0.177828076494406,0.240294215937888,0.161294189529552,0.440865835623578,0.159358989757147,0.0393846881826778,NaN,NaN,NaN,NaN,2.01006102178809,-122.843348050567,2.06566418103809,stable,stable,1,0.602435404094873,0.195739854399981,0.202591835103532,0.896097757530361,0.328313693542421,0.570451835292907
22,2.6289816737175,3,-0.736374202150085,-2.49155000887041,2.6289816737175,0.00565237669041018,0.00880254435863028,0.0104610778333758,2.00750893960501,1.68407766125089,0.0307571863582943,0.0547335373360303,0.131550727954987,0.449654832378349,0.00506228816814204,0.010361660036685,NaN,NaN,NaN,NaN,3,-105.373889448931,1.85630636969398,stable,stable,1,0.815228410668537,0.085396987683015,0.057255974839293,0.955616083528414,0.341533009797784,0.557717439271359
23,1.71470745566751,2.50263595581055,-0.831581097145909,-1.48666605601706,1.71470745566751,-0.0314053223167616,0.00977811064456702,0.0328923352408594,1.14070736604834,1.1433088680048,0.177277413062938,0.240222592949738,0.151738117595073,0.465811286983368,0.156782390959141,0.0435889787470187,NaN,NaN,NaN,NaN,1.75191981509009,-118.497538474994,2.13589298746038,stable,stable,1,0.532326799079214,0.183314173993008,0.1955201047705,0.893415451629542,0.332560836624412,0.577708709568522
24,2.67312644768676,3,-0.622880802389279,-2.56552308973702,2.67312644768676,-0.0260079171894176,-0.00391931827364828,0.0263015743304799,1.88781009079039,1.59470579573071,0.0625055406182564,0.240414835250173,0.143256566790829,0.46720102515295,0.00190767966812398,0.00783338924494997,NaN,NaN,NaN,NaN,3,-102.185830974197,2.04282208821526,unstable,unstable,0,0.82928290218394,0.0783685045644002,0.0507174655488993,0.941384604868206,0.336330414759632,0.553870803629628
25,1.73115559459544,2.67115640640259,-0.935257634576689,-1.42861241146369,1.73115559459544,-0.0681563590499708,0.0024035602186805,0.0681987271191578,1.05387773071362,1.05388858989027,0.176196355979644,0.240208472261807,0.168181813815039,0.473141832720466,0.156613865471744,0.0420858716818882,NaN,NaN,NaN,NaN,1.79680657025774,-122.144595008979,2.25862826408187,stable,stable,1,0.538249537957365,0.224003282628455,0.219312085347828,0.895340800919719,0.325252527193316,0.576845085589021
26,1.85498945275942,2.66871428489685,-1.03558652433806,-1.51720451830411,1.85498945275942,0.00104470519428199,-0.00168150575334874,0.0019796137354304,1.65969210196691,1.4781281183804,0.0229178147656898,0.0512034367097183,0.111467047565355,0.429461523220084,0.000124729775655976,0.00506683431328279,NaN,NaN,NaN,NaN,1.89015622586425,-123.159855511628,2.10935264955432,stable,stable,1,0.575092921342582,0.18345101641575,0.111968530510127,0.963886790885855,0.350459089970953,0.809261218177827
27,1.69376827908211,2.66936063766479,-0.816200459204694,-1.45864121493198,1.69376827908211,-0.063758325793748,-0.00182170615567965,0.063784345425342,0.760752852186814,0.844554946160102,0.177879963325327,0.24022293727994,0.142874961546287,0.433089532146248,0.159404962060593,0.0365768431130883,NaN,NaN,NaN,NaN,1.77620387229689,-117.832865156267,1.62021039931012,stable,stable,1,0.526556467908712,0.231202077342417,0.222868566433099,0.898446885636039,0.336500017090539,0.578603337730294
28,1.71374116300726,2.54544949531555,-0.96188961380666,-1.40423675777131,1.71374116300726,-0.0421247127819859,0.00041678462728666,0.0421267745785308,0.99651356570508,1.09623807292314,0.177071609687081,0.240192366259828,0.144451165821012,0.513316304593545,0.156757717403955,0.0412857178777662,NaN,NaN,NaN,NaN,1.77693740749085,-123.63065316624,1.91770348374332,stable,stable,1,0.532242718605748,0.194857616775431,0.201597655008426,0.895021146567238,0.335799481857328,0.577819365632225
29,2.68258441527685,3,-0.496615566713688,-2.59863465755843,2.68258441527685,0.00068347521813429,-0.00872611954277495,0.00875284528873912,1.43293967171949,1.35667050645838,0.0191610004868309,0.0538959971246787,0.106601434550747,0.458906960155674,0.00026740896799583,0.00900595358264947,NaN,NaN,NaN,NaN,3,-100.208461528465,2.29830098133029,stable,stable,1,0.831805401792559,0.0730231948656453,0.0472076575614801,0.968501134070901,0.352621584644113,0.557938001821585
30,1.69714912514628,2.65146017074585,-0.97333765361504,-1.37058923350855,1.69714912514628,0.00162129974287025,0.0145972205983015,0.0146869827415881,0.655246596749642,0.774992940542368,0.160223942170851,0.240222539524101,0.169943010378554,0.24726702542006,0.159617503065464,0.0356029218035679,NaN,NaN,NaN,NaN,1.90894849737311,-119.745808657761,2.09665064963837,stable,stable,1,0.526458925059316,0.217412598762528,0.214335188750536,0.908650432550137,0.324469773165087,0.580883196117289
31,1.89209460644495,2.56076526641846,-0.943096626340674,-1.62685377916447,1.89209460644495,-0.0460588415201928,-0.00585251787368837,0.046429180992605,0.838576853784926,0.906681718004356,0.176099592079223,0.240223665568802,0.154597734806625,0.442327148792741,0.15667212269923,0.0424827412510845,NaN,NaN,NaN,NaN,1.95935225919259,-119.13516242978,2.03953241033169,stable,stable,1,0.587632675554428,0.15896291500935,0.18045807308445,0.898237458039187,0.3312898956415,0.572430033329047
32,2.62647155125936,3,-0.644478746463975,-2.51193318059433,2.62647155125936,0.00860735848778332,0.00103158976176407,0.00866895596792324,2.20406186826032,1.44848119205951,0.0310470754137939,0.0736188131533522,0.137308489251709,0.492089506315582,0.00691268520209311,0.00545245920354537,NaN,NaN,NaN,NaN,3,-103.01941117063,1.80961277299991,stable,stable,1,0.814408456529653,0.0856332095607636,0.0564349427083746,0.955777909676304,0.338974004777018,0.557854654306078
33,1.8802644687445,2.71676301956177,-0.81959891750959,-1.67213912352219,1.8802644687445,-0.0550188482274249,-0.00435606398582362,0.0551910224014831,0.84864742171911,0.699858726491654,0.176079429503144,0.240252806929998,0.126531722911326,0.382772022863075,0.159618941326748,0.0352575815783517,NaN,NaN,NaN,NaN,1.93692079365451,-115.089103932968,1.72648283786412,stable,stable,1,0.584169775833496,0.198330528040824,0.202761007281036,0.899793451226772,0.343763678706077,0.572894579557794
34,2.67415805461959,3,-0.600072228448682,-2.56702694445156,2.67415805461959,-0.0328779294234241,-0.00613132480361023,0.0334447512626275,1.43493948962809,1.37677576952575,0.0618931560854042,0.240462728085642,0.116547765441155,0.475545546426714,0.00185466752826679,0.0105620420092047,NaN,NaN,NaN,NaN,3,-101.157933097739,1.76452725085901,unstable,unstable,0,0.829769374461533,0.0794459754420746,0.0523326244932762,0.946961373492518,0.348200993137265,0.554548786101645
35,1.82741164512375,2.53565740585327,-0.82721698802431,-1.61613145552213,1.82741164512375,-0.045259076341929,-0.00259607462537737,0.0453334710207048,0.884356244142453,0.861049239715848,0.176306350265566,0.240235295970532,0.147650030294828,0.445487109724637,0.156773649011029,0.0422038307133732,NaN,NaN,NaN,NaN,1.86137587595629,-115.841095627455,2.0054377184925,stable,stable,1,0.567555390978845,0.167666432517939,0.185623884381134,0.898132924636902,0.33437776431341,0.574535724486151
36,1.97728131333987,2.75015234947205,-0.890969277371784,-1.75035278227914,1.97728131333987,0.00582842886950702,0.00480124608591582,0.00755132750345427,2.33549907598152,2.15126290412008,0.0189901484202161,0.077566264426187,0.135855423793973,0.494789251654402,0.00024554348109014,0.00416593150843764,NaN,NaN,NaN,NaN,2.00134863438598,-116.022448666907,2.29465470964357,stable,stable,1,0.613133404777107,0.17528039317204,0.10679225052415,0.955251795946237,0.339619811647123,0.803893978477079
37,1.79118647624035,2.53445816040039,-0.800702082589157,-1.58925840315168,1.79118647624035,-0.0423184166907532,0.00346655415316282,0.0424601623749725,0.938013333593679,0.772993454149058,0.176165425087745,0.240192797860234,0.138407333604801,0.374341528200711,0.156748540697831,0.040969414100904,NaN,NaN,NaN,NaN,1.84847057739295,-116.145839673518,2.4328928616437,stable,stable,1,0.556258544756592,0.175020492038087,0.189576282074742,0.898473662695292,0.338485629508978,0.57581443608492
38,1.94610533179069,2.80964517593384,-0.75480704404957,-1.78158458135979,1.94610533179069,-0.0412932878718793,-0.00196606797485085,0.0413400658750276,0.829536160013086,0.766711057931963,0.176689653119092,0.240247183508642,0.139868085932023,0.39863858617366,0.159532726947302,0.0353594655131921,NaN,NaN,NaN,NaN,1.9993932608471,-112.620106358339,1.72610106374361,stable,stable,1,0.604257254392198,0.201875477009297,0.204886707863721,0.899113231013743,0.337836406252434,0.570895110216051
39,2.62845037142436,3,-0.634208032656582,-2.52054552409983,2.62845037142436,0.00514780763016417,0.00565745232120579,0.00764896660758127,1.84313210930162,1.80997647890653,0.0162428733699141,0.0533848428953172,0.126637553202242,0.417167190852771,0.000176471659466001,0.00782774961341386,NaN,NaN,NaN,NaN,2.9987372183553,-102.731971335258,2.42779679038902,stable,stable,1,0.814998091029061,0.0850009769742429,0.0539254724380751,0.963175567264836,0.343716643021226,0.783917841102801
40,1.90314570576155,2.62015271186829,-0.290322022584637,-1.86888901291576,1.90314570576155,-0.0415983251193194,-0.00691223129812128,0.0421687039669388,1.20363225467675,0.910022096729463,0.177137620520009,0.240230076635344,0.149589714674516,0.44033417338002,0.156816753835593,0.0434922407148768,NaN,NaN,NaN,NaN,1.96262077332345,-97.9255988407311,2.06346725625103,stable,stable,1,0.590959105211977,0.169057505434621,0.186946198558769,0.894823905550375,0.333515682366882,0.571633398075884
41,1.89557501247951,2.77622437477112,-0.263282940833897,-1.85777018684355,1.89557501247951,-0.0593286549199142,-0.0107217230203447,0.0602896727402899,0.990448332540061,0.821691206720662,0.176170379635664,0.240245694193334,0.158692680948517,0.468159511081151,0.156787466001095,0.0410258805635523,NaN,NaN,NaN,NaN,1.94919332297993,-97.076725643542,1.73291993484709,stable,stable,1,0.589035012899255,0.209199213184665,0.210121348156618,0.897676570945119,0.329469919578437,0.571990228463229
42,2.62876444578171,3,-0.630407203553037,-2.51956963290782,2.62876444578171,0.00701807695904363,0.00579923195109241,0.00910409223512318,1.69955794540664,1.44025932206957,0.0301184288693878,0.0532513587304959,0.113115430915363,0.435293889057906,0.00796825296167639,0.0059710326657516,NaN,NaN,NaN,NaN,2.97766096785849,-102.83550377438,1.82059374911355,stable,stable,1,0.815129407011149,0.085197083275555,0.0568309803318059,0.960270792749422,0.349726475148728,0.558446452810393
43,1.82886660261219,2.64548921585083,-0.259140287368857,-1.79255373647132,1.82886660261219,-0.0473394464340243,-0.0213010518101107,0.0519110585222154,0.978982534125279,0.740527474297103,0.176469325382953,0.240217623104336,0.133280834963585,0.391042702303958,0.156783737526531,0.0418517788414051,NaN,NaN,NaN,NaN,1.87761184680711,-96.9149867627548,1.66029996935038,stable,stable,1,0.568159904841964,0.193257115374433,0.200854759017165,0.898254901528062,0.340764073349518,0.574391627120174
44,2.46672160798144,3,-0.592475986260488,-2.36284226206446,2.46672160798144,-0.0142992565073544,0.0142716607313684,0.020202698747801,1.4842479533381,1.17612803280044,0.0624073553306509,0.240467639168984,0.108183153204492,0.429927849596478,0.0019703655183407,0.0100398367086625,NaN,NaN,NaN,NaN,2.70268226585959,-102.84402520654,2.29664772261631,unstable,unstable,0,0.765155094778362,0.123691466307939,0.0787414475051559,0.947893368157872,0.351918598575781,0.561662005736197
45,1.66507619943749,2.32527494430542,-0.210667255814384,-1.6397678656317,1.66507619943749,-0.0406551794494465,-0.0212022046320276,0.0458516858722236,0.834901854635685,0.599618121524881,0.177463128382873,0.240196037865416,0.123176973243834,0.414267186874085,0.159583365634818,0.034777076313039,NaN,NaN,NaN,NaN,1.74484723470437,-96.8322370152764,1.78049717887787,stable,stable,1,0.517243494495972,0.156950860005193,0.177742665853635,0.899997207424445,0.345254678558296,0.580082200129185
46,1.67628131667773,2.36591696739197,-0.22505478425809,-1.65038320976969,1.67628131667773,0.00333785260352593,0.00376180717515027,0.00502916029033445,2.0912225547053,2.0649426290077,0.0239756667657135,0.0729506313216008,0.135462755685736,0.454650416041181,0.000285336421449089,0.00686065533703396,NaN,NaN,NaN,NaN,1.71876069037497,-96.5690723186371,2.10730273764823,stable,stable,1,0.519764555243537,0.156090034130598,0.0962756204245911,0.955356583030827,0.33979433080634,0.813736334357517
47,1.79143313566844,2.58864188194275,-0.145628621141101,-1.76924971138361,1.79143313566844,-0.0526682444781885,-0.0377225211240397,0.064783736974397,0.908347730589315,0.621193282851987,0.177580634017172,0.240231705798852,0.138815773589099,0.365772034392163,0.156632293605392,0.0412054966715227,NaN,NaN,NaN,NaN,1.8330973949862,-93.5355183886098,2.28337297397839,stable,stable,1,0.556855892586618,0.191248986357026,0.199347561499186,0.899191860742947,0.338304100627067,0.575523486805166
48,1.71559735544685,2.29931616783142,-0.192037864926934,-1.69203336714985,1.71559735544685,-0.037992328668947,-0.0118194049916872,0.0397883823753469,1.19738856167959,1.01899640231798,0.177115734475158,0.240197592017638,0.149664741994747,0.454013086272574,0.156825130307742,0.0417422735617984,NaN,NaN,NaN,NaN,1.76093856199151,-95.8152911333806,2.10966900187565,stable,stable,1,0.532763575777281,0.138631269555342,0.168057828215684,0.894027679473869,0.333482336891224,0.577650941177489
49,2.61380214214325,3,-0.677289101122321,-2.49255727348465,2.61380214214325,0.00635558989748693,0.00523391842124529,0.00823331190866037,2.32234521788422,2.39398408548111,0.0158776373076692,0.0756293454595114,0.146966134415736,0.48755957919875,0.00040550414260228,0.00669347524891742,NaN,NaN,NaN,NaN,3,-103.690253195533,2.41581332582163,stable,stable,1,0.810470774675609,0.0884039585343566,0.0556565901835991,0.955004308248295,0.334681718037451,0.783157993659187
50,1.68074897843964,2.42732357978821,-0.152114661181669,-1.66261160052902,1.68074897843964,-0.0371085691507746,-0.0137402948263886,0.0395707165254043,0.981833264466018,0.684966579272063,0.176842502248635,0.240191784288044,0.149745306122368,0.425372346009384,0.159451044054661,0.0374436614344169,NaN,NaN,NaN,NaN,1.72627812567413,-94.411640590645,2.3002181391716,stable,stable,1,0.521955500035215,0.175233916666418,0.189623357576054,0.898482464389169,0.333446530612281,0.579455540319892
51,1.61046342136098,2.30811476707458,-0.147358565315782,-1.58737213075085,1.61046342136098,-0.0549437643508872,-0.0143770369965943,0.0567936302224753,1.03519627965507,0.941185717431768,0.176268936617459,0.240204933823855,0.142885035610249,0.423309761351133,0.156650952418387,0.0417725554493085,NaN,NaN,NaN,NaN,1.64198518080473,-93.7945426045898,2.18221943839201,stable,stable,1,0.500568845327094,0.167383718326349,0.185242896678477,0.896336815999874,0.336495539728778,0.581116572676856
52,2.62243927915891,3,-0.638437778671978,-2.51124577516598,2.62243927915891,0.00654954201132541,0.00416808724289192,0.00776334024904711,2.76098985303693,1.95748622048009,0.0357718244392659,0.0813167415334444,0.183431221126062,0.476479467666697,0.0201115505903874,0.00505690677856572,NaN,NaN,NaN,NaN,3,-102.899260755177,1.58062583847656,stable,stable,1,0.813137321145073,0.0863744412349039,0.0626020068622091,0.945040347202733,0.318475012832861,0.556390917053387
53,1.72097675978732,2.48156261444092,-0.130498302744189,-1.69953188233214,1.72097675978732,-0.0412964297500914,0.000440046860012502,0.0412987742111463,0.927326732804244,0.733883008105121,0.176806766416043,0.240260893938714,0.146027341937641,0.398603903922184,0.1567358294236,0.0415652018825424,NaN,NaN,NaN,NaN,1.76767167051157,-93.7767495596924,1.86499313257951,stable,stable,1,0.534466433598996,0.17870325923577,0.191996943040552,0.898544254541976,0.335098959138826,0.578127164939513
54,2.59962794780731,3,-0.547387959318036,-2.50877450041043,2.59962794780731,-0.017556727497679,0.0152021835517404,0.0232238038479609,1.56729803591281,1.25185629395084,0.0627873486372447,0.240372078035746,0.115608926577087,0.391449821597431,0.00192343012906968,0.0103298393779395,NaN,NaN,NaN,NaN,3,-101.106544404973,2.21687229250898,unstable,unstable,0,0.806426552576719,0.0943414091154809,0.0612160085327723,0.946455827375306,0.348618254854628,0.557074049235219
55,1.5891411596415,2.27864670753479,-0.145884419186253,-1.57124027329306,1.5891411596415,-0.020312789731734,-0.0129416051934668,0.0240851525149667,0.979190725424613,0.838966642081965,0.177058392718276,0.240189273891505,0.122348696862833,0.448805943231341,0.15935855074792,0.0318323698275268,NaN,NaN,NaN,NaN,1.6954412846166,-94.4207914550518,2.21053583098304,stable,stable,1,0.493195746380881,0.159554359570401,0.178134045506881,0.897185281467596,0.345622801394296,0.582509214362779
56,1.61614278048576,2.2945237159729,-0.0551026412903883,-1.60402440539333,1.61614278048576,-0.0106550188393861,0.0018189601238294,0.0108091647410775,1.1950358543175,1.29393968973425,0.0159306385838198,0.0480993191540101,0.103146117809193,0.271135025724396,0.000226617223418996,0.00700692636941299,NaN,NaN,NaN,NaN,1.73280982852964,-92.1431804697514,2.40965693258037,stable,stable,1,0.501256475794544,0.154617390687138,0.0954191264034877,0.972478444290541,0.354157280973692,0.818157965894825
57,1.61872183952202,2.18135380744934,-0.196313662159313,-1.59668414454059,1.61872183952202,-0.0401591743212283,-0.0171552991244907,0.0436699389765266,0.836431108585327,0.683075072533627,0.176465263071329,0.240173510945443,0.121311345798173,0.417763531694767,0.15669051513706,0.0403943847533791,NaN,NaN,NaN,NaN,1.65239533729994,-95.8334835366937,1.7076860269625,stable,stable,1,0.502822735494611,0.134598348262677,0.165088105090458,0.899828391326972,0.346083846311923,0.581601574982491
58,1.63361052874805,2.34134387969971,-0.107932364140261,-1.61462002885493,1.63361052874805,-0.0420367574440508,-0.00867294297449855,0.0429221261850909,0.903097918468496,0.59137141347698,0.177448247527379,0.240199994905635,0.125234844640282,0.378986575918879,0.159511395088056,0.0372202414562665,NaN,NaN,NaN,NaN,1.68060545220575,-92.4282145747537,1.79083155079144,stable,stable,1,0.507420780189548,0.167109060431389,0.184694022888127,0.899533617199596,0.344340069048763,0.581086563187389
59,2.53153938492139,3,-0.507156802266406,-2.44915115220437,2.53153938492139,0.00666847563984599,0.00716041240901308,0.00978468564780535,1.61362105746587,1.53514330447012,0.0274661652985563,0.0494694363526232,0.110524946063843,0.39090766648767,0.000596329564328504,0.0058897604240032,NaN,NaN,NaN,NaN,2.78982386220964,-100.41262924442,1.94914331580708,stable,stable,1,0.785005518657414,0.107197497428118,0.0667252648820684,0.96152662593551,0.950877801749403,0.911782731881545
60,1.66763387894144,2.30392575263977,-0.0819275460207109,-1.65284650417998,1.66763387894144,-0.0473545617184383,-0.0209308279344727,0.0517740675779669,0.964764767395555,0.776770642108105,0.176928003967009,0.240185350790445,0.137555711156021,0.435219046666142,0.156774505430723,0.0424115625357342,NaN,NaN,NaN,NaN,1.72864210057146,-91.9462754292346,1.72419831711204,stable,stable,1,0.518174564048665,0.152657583971419,0.176694494728692,0.897852505513252,0.338864128375102,0.579573728578777
61,1.61731814689377,2.26321530342102,-0.202628723799401,-1.59424947013001,1.61731814689377,-0.0359137672226805,-0.025825004915597,0.0442349359106068,0.88822129982555,0.679987813198577,0.176295273894674,0.240184082682997,0.147462365613892,0.374298414781742,0.156633492645485,0.0398507280938915,NaN,NaN,NaN,NaN,1.6541677253945,-95.777639022521,2.46042677121121,stable,stable,1,0.502400774041649,0.15343659846891,0.176168018553886,0.899530720021759,0.33446117083827,0.581592656850781
62,2.60688031236331,3,-0.538659956181486,-2.51889769132872,2.60688031236331,0.00557621496827022,0.00503848686023432,0.00751535250092202,1.81828411718688,1.64289306485104,0.0260569044677201,0.0632753576245182,0.119537174096228,0.443604141918487,0.000280460900952036,0.00449963207675234,NaN,NaN,NaN,NaN,2.96888331606625,-100.576107342626,1.98865823031964,stable,stable,1,0.808308255057647,0.089829744343425,0.0556587257414588,0.959776584192985,0.346872367068343,0.784111358808374
63,1.5651213522671,2.23329067230225,-0.0865688889993752,-1.54730957982692,1.5651213522671,-0.0391403003149622,-0.0121535858267094,0.040983810915929,1.16043853144487,0.850891515259116,0.175300245477682,0.240207976446328,0.15563573695237,0.454766261733389,0.156671556178747,0.0426845954964154,NaN,NaN,NaN,NaN,1.60300708299886,-92.1234906695166,1.84489253202468,stable,stable,1,0.486143908124174,0.157851795675828,0.179864551241212,0.896546569751342,0.330828561354502,0.582898324822992
64,2.65952064766186,3,-0.60785381512389,-2.5541945842291,2.65952064766186,-0.0226283091552438,-0.00913882636930872,0.0244040677476863,1.32340100438052,0.892973665065102,0.062742523698927,0.240285125202799,0.0927553277897492,0.378637128582108,0.00185360510749629,0.00977930138797543,NaN,NaN,NaN,NaN,3,-102.201792877698,1.5093512697856,unstable,unstable,0,0.825020829022622,0.0810819333631579,0.0530290941057427,0.951214365747749,0.358775409871223,0.555820662627567
65,1.49626874599327,2.1333920955658,-0.12978555053547,-1.47580948207805,1.49626874599327,-0.0451488130420568,-0.0187448093604859,0.048885408836048,0.723535941192228,0.56906999533099,0.176759757721496,0.240176450583498,0.13622400196563,0.383243446351647,0.159511959398377,0.0347939932483176,NaN,NaN,NaN,NaN,1.55228808798252,-94.2268777224065,1.91290481579584,stable,stable,1,0.464983970797422,0.152315078607094,0.174935612522519,0.901463931637998,0.339455999126387,0.585735360846288
66,1.59075952728589,2.28904223442078,-0.125801978718338,-1.56980440401606,1.59075952728589,0.0050766555318779,0.00668789532130668,0.00839645015575643,1.99869623372645,2.04757073680729,0.0148730447983451,0.062051557196546,0.133070085826051,0.464833709347602,0.000185995563701387,0.00751318752712781,NaN,NaN,NaN,NaN,1.60696450398557,-93.5145725727472,2.46079314800317,stable,stable,1,0.493331370628928,0.158652958300571,0.0980065078670036,0.960771379975205,0.340857739632866,0.817269084481763
67,1.64045367435533,2.38503050804138,-0.105803448467499,-1.61538549527911,1.64045367435533,-0.0610694027577633,-0.0230812322871717,0.0652856434224576,0.988202155466524,0.760703429200755,0.176483729882858,0.240227838464617,0.140716005502,0.413138288026581,0.156584325740183,0.0409841452033434,NaN,NaN,NaN,NaN,1.70472744872138,-93.0615211949791,2.19635194984347,stable,stable,1,0.51006397073001,0.179498822206812,0.192195652514879,0.898016734036185,0.337459553110222,0.580245266928986
68,1.59445013926954,2.4313747882843,-0.147851169699725,-1.56642694880369,1.59445013926954,-0.0523955682003835,-0.0189459494542027,0.0557157479332571,0.892938833147799,0.639071534330252,0.178170569420308,0.240257359103481,0.13581261907063,0.378950212553498,0.159527167582308,0.0352463838471583,NaN,NaN,NaN,NaN,1.6346567991892,-94.1375227104005,2.26389415930147,stable,stable,1,0.495579577291999,0.198522599816086,0.202831390113078,0.898877490973947,0.339638835968609,0.582036968531
69,2.61334006627401,3,-0.393031072389875,-2.54923236032703,2.61334006627401,0.00361261385501858,0.00788404005566393,0.00867231609576044,1.93107177692268,1.65787856668052,0.0342935273930378,0.0749933247489756,0.120425660259893,0.490348472305813,0.0159776028802365,0.00505594343718295,NaN,NaN,NaN,NaN,2.97762147861884,-97.4745863886534,1.6344757054404,stable,stable,1,0.810337774587177,0.0885884097059045,0.0620927275454517,0.954654340746599,0.346477484328937,0.783112833426409
70,1.68510131608872,2.36959290504456,-0.0874852854261569,-1.67165906973451,1.68510131608872,-0.038253977163225,-0.0202950013691252,0.0433042012901443,0.959643349282577,0.574615745136447,0.176876612224623,0.240182952777659,0.12552729424162,0.34620935084411,0.159561989107785,0.0344861173797114,NaN,NaN,NaN,NaN,1.74106956136438,-91.9626622500687,2.06671412988744,stable,stable,1,0.52339183935094,0.161949711084922,0.180626672574308,0.899506801002968,0.344210091448169,0.579402403854984
71,1.65465999541639,2.24579668045044,-0.203063474952387,-1.6319875383104,1.65465999541639,-0.0391103706782224,-0.0175459800551636,0.0428658664986975,1.2189785843136,0.99100413964962,0.176850166883054,0.240192995014605,0.160326058305726,0.455960077019184,0.15672854481309,0.0421119566395647,NaN,NaN,NaN,NaN,1.67774962146967,-95.9395937551425,2.26028038265661,stable,stable,1,0.513944802130719,0.140864496324088,0.169489267600516,0.894210766584476,0.328743974086344,0.579605012472911
72,2.63061478058497,3,-0.603844821896131,-2.525759055772,2.63061478058497,0.00381806895753541,0.00379250499683106,0.00538151881121715,1.74987734400486,1.50786214185144,0.0288166816438783,0.0500367466124077,0.109568031828221,0.382744756669887,0.00333289895102353,0.00590777938849133,NaN,NaN,NaN,NaN,3,-102.28205700878,1.89466531012535,stable,stable,1,0.815616150753603,0.084098286150438,0.0540885435269368,0.959995134646333,0.951303096965235,0.908410113248742
73,1.64038841213499,2.51849341392517,-0.175313830934282,-1.60855106423553,1.64038841213499,-0.0556251143168676,-0.0162744577033362,0.0579569781501958,0.987432318238948,0.883869152734233,0.176627396718498,0.240217456659017,0.151807813763368,0.440325746084182,0.156530039501374,0.0405059381665573,NaN,NaN,NaN,NaN,1.730743683828,-94.7490683234343,1.93515535815408,stable,stable,1,0.509872737252018,0.208199071396994,0.209217781343818,0.896983218654533,0.332529860549614,0.580220612286164
74,2.66518646136781,3,-0.593888752011468,-2.56425684056551,2.66518646136781,-0.0250387140205708,-0.00763115619064429,0.0261757854630943,1.44904715738089,0.869823084842167,0.0638378894682549,0.240361796642642,0.087202388096035,0.426907656548093,0.00189150170917227,0.0115492556758486,NaN,NaN,NaN,NaN,3,-101.440236798872,1.52488381839242,unstable,unstable,0,0.826818571351493,0.0801319401938102,0.0531195608792571,0.949861360505549,0.361243383068429,0.555402567835774
75,1.63952452593109,2.50767683982849,-0.181226990726607,-1.60751361202181,1.63952452593109,-0.059440664039391,-0.0181429395661304,0.0621478784637417,1.21024713878613,1.072727478059,0.176072279964665,0.240224262961677,0.170558704157301,0.511618446066607,0.156636582349489,0.0411015364571575,NaN,NaN,NaN,NaN,1.72844746755899,-95.0560971705178,2.0643392754391,stable,stable,1,0.509702720202793,0.206728048345267,0.208599101086303,0.894026202313884,0.324196131485644,0.579731795381207
76,1.76999967972438,2.6118757724762,-0.230023869610688,-1.73831037256089,1.76999967972438,0.00445822498044386,0.00792626467662043,0.00909403330212147,1.90406088581816,1.61661409201928,0.0222004438070764,0.0516554144581484,0.119708614465346,0.389515874597793,0.000408837629148106,0.00773944336087576,NaN,NaN,NaN,NaN,1.80133462105751,-96.2777836497926,2.1658861320755,stable,stable,1,0.548912094824939,0.191089360307882,0.117649664838002,0.961237331842025,0.346796171348735,0.811501464602474
77,1.6956067133923,2.57593607902527,-0.146458606195903,-1.67108801477375,1.6956067133923,-0.0492378629032692,-0.0240415078098439,0.0547938065939201,0.958585990438779,0.866350897065226,0.176532625892239,0.240207852105485,0.125780060476512,0.445419850462457,0.156697891853176,0.039868648371661,NaN,NaN,NaN,NaN,1.75923009576763,-93.8331549635916,2.03530309719676,stable,stable,1,0.52691660330547,0.208119638476304,0.20901298089305,0.897394897223492,0.344097750899328,0.578543124782881
78,1.77613789289176,2.64973020553589,-0.200675935678338,-1.74870740856993,1.77613789289176,-0.0464724012846344,-0.0102025454572729,0.0475791552569801,1.01032014916682,0.804506779210486,0.177347737029257,0.240232919082007,0.153810619605944,0.454597252878456,0.159487191366505,0.0372233377113296,NaN,NaN,NaN,NaN,1.84421771642335,-95.6415120879709,1.54902812912697,stable,stable,1,0.551712927085775,0.205281115475375,0.207587624615872,0.897066777048121,0.331639724619581,0.576002899821239
79,2.62069193522135,3,-0.400222985155286,-2.55970911287325,2.62069193522135,0.00479337626357644,0.00709290434024451,0.00856070954910149,1.67995942776187,1.45140607722289,0.0347737221784958,0.0521753825173246,0.107729649618697,0.384172859088352,0.028053986770529,0.00358494249167474,NaN,NaN,NaN,NaN,3,-97.5958361626102,1.52717238375065,stable,stable,1,0.812614249808099,0.0869137779925306,0.065920320811716,0.958009552800158,0.352120155725024,0.78337913260822
80,1.79500689149714,2.63248777389526,-0.241558594791732,-1.76225511220947,1.79500689149714,-0.050254416991691,-0.0182778097164832,0.0534750853688587,0.961550370213995,0.422099926107349,0.176495727656975,0.240227912112544,0.143038947473481,0.367760148992372,0.159492919757375,0.036001589898129,NaN,NaN,NaN,NaN,1.84269174465958,-96.4089816842801,1.80950529044745,stable,stable,1,0.557699888356053,0.198236964190536,0.202919407864394,0.900880598128988,0.336427134456231,0.575858551751736
81,1.86091742223623,2.63300728797913,-0.181369845532671,-1.84005323147327,1.86091742223623,-0.0379120778135446,-0.0171428489669498,0.0416077266243172,1.15831365066738,0.772997672414522,0.175095700075622,0.240195643988693,0.162311960724128,0.478305862505798,0.156836971245425,0.0402647672722763,NaN,NaN,NaN,NaN,1.90149022471625,-95.3637271300002,1.67987365072548,stable,stable,1,0.577855247847798,0.18134830300661,0.193156035911043,0.897277560995117,0.327861350789276,0.573383682710665
82,2.49801772254765,3,-0.390860947392354,-2.43189270896035,2.49801772254765,-0.0201491912235192,-2.80393775573552e-05,0.0201492107331437,1.0886126692707,0.887953325345158,0.0239520813123118,0.0518788169705038,0.1485985143091,0.332108582752894,0.0167821848698195,0.00664615096940741,NaN,NaN,NaN,NaN,2.91783086718893,-97.7855854258006,1.64741212718663,stable,stable,1,0.774855642240212,0.116640034394521,0.0798595516384372,0.972493797957577,0.333956215862622,0.564335882523008
83,1.6898081253986,2.42934083938599,-0.280507635403716,-1.6551268577552,1.6898081253986,-0.0397868707300488,-0.0150657548677468,0.0425437663145219,1.17854519599713,0.853786790537533,0.175769549806145,0.24020011539493,0.159617058387338,0.467029652110014,0.15663346298198,0.0411996115407525,NaN,NaN,NaN,NaN,1.75027764965131,-99.5200046041142,2.36203773213601,stable,stable,1,0.524833206754237,0.174194551138158,0.18911328004324,0.896146902345584,0.329059085161183,0.578758755365879
84,2.66053370837748,3,-0.467684950011033,-2.58272319896724,2.66053370837748,-0.0294581402483053,-0.0109039149641949,0.0314114213055573,1.56304010675844,1.09510626649812,0.062691583446726,0.240237023689723,0.102149902078814,0.411959901052058,0.00189152648856742,0.00801842506588564,NaN,NaN,NaN,NaN,2.95681470906161,-98.270421652992,1.90689129138904,unstable,unstable,0,0.825498382760814,0.0821386761877533,0.0530396750850646,0.947768772486764,0.354600043520527,0.555148270477899
85,2.06464295727866,2.86572408676147,-0.435219894308964,-2.0051248637703,2.06464295727866,-0.0474509241085099,-0.00868197873899492,0.048238645851391,1.11517847069934,0.85459607195334,0.176334880786572,0.240304516992007,0.182305379590895,0.416745558110094,0.156713436191623,0.0425175731025975,NaN,NaN,NaN,NaN,2.10680641889481,-101.731697741666,2.49376824478626,stable,stable,1,0.641164885159584,0.189087005873055,0.19856355528267,0.896355759628729,0.318975386848491,0.566508291530353
86,1.98690696438154,2.8099193572998,-0.565232691507152,-1.88492511253938,1.98690696438154,0.00543024589612801,0.00119347548242758,0.00555985199619296,2.72334293449986,2.71745080684056,0.0175137938046202,0.0750657586714136,0.167494069099435,0.494465682136515,6.4931987563241e-07,0.0067144818848419,NaN,NaN,NaN,NaN,2.01104491577433,-105.279667622794,2.38848813181817,stable,stable,1,0.616070888838187,0.186197094605913,0.114160175126465,0.948494009415729,0.325558191511362,0.802602327660026
87,1.98970135782852,3,-1.13755639923243,-1.59837188344733,1.98970135782852,-0.0676056883191962,0.00679047937038079,0.0679458586169302,1.05888984830664,0.951241817969555,0.177108965349873,0.241874111670627,0.133352955935466,0.415067807771811,0.156792470500739,0.0402508096603581,NaN,NaN,NaN,NaN,2.06469467336038,-124.238920485483,2.06079504148037,stable,stable,1,0.618392824294569,0.239773935235021,0.228186561644098,0.895651625661465,0.340732019584237,0.568493397193997
88,1.96586341355123,2.83156824111938,-1.10160083805297,-1.60623992720259,1.96586341355123,-0.0621371592294006,0.0010492335399923,0.0621460171541292,1.01381662563322,0.962218315901503,0.176162482124069,0.24028382470681,0.163418388216971,0.467577266315558,0.156726863269603,0.0404335479967116,NaN,NaN,NaN,NaN,2.00959748573364,-123.70580417537,1.65253121714687,stable,stable,1,0.610867731934477,0.206177022681093,0.208065705646475,0.896392770111621,0.327369605236902,0.569480799276131
89,2.62790365020434,3,-0.246164505545379,-2.58216988521183,2.62790365020434,0.00530186869623821,0.00620082696793442,0.00815843531312306,2.18081344224757,2.04985044052106,0.0259305002740437,0.0756368520966474,0.147380152274535,0.896105617642907,0.000159602945628938,0.00544430018245525,NaN,NaN,NaN,NaN,3,-94.0907171926139,2.02987875635574,stable,stable,1,0.814840495053985,0.0852173918447626,0.0531811152702521,0.95379381935551,0.334497710100207,0.782519431653706
90,1.9240457581825,2.87878561019897,-1.05375865138129,-1.58071061180249,1.9240457581825,-0.0731779770675267,-0.00557630605351942,0.0733901322856007,0.995438568699036,1.03059095539859,0.176496611620162,0.240315850267167,0.171366938198034,0.419094822611136,0.156717106527265,0.0429268218393849,NaN,NaN,NaN,NaN,1.99637079272466,-122.311062912018,1.85619155676057,stable,stable,1,0.598166621456572,0.2282713242894,0.222224595315231,0.895832890786295,0.323836916356429,0.570559119162015
91,1.88508060027142,2.82819318771362,-1.12838777581485,-1.49321482196221,1.88508060027142,-0.0511052231445467,0.0090022622817408,0.0518920471637338,0.962367455672335,1.08536988460799,0.176515796047077,0.240246889800365,0.167327493248607,0.527607616053532,0.156706169454945,0.0419740884630198,NaN,NaN,NaN,NaN,1.94546366280019,-126.251978914843,1.74508648347941,stable,stable,1,0.585585800517961,0.221713874154514,0.217938815812772,0.895652737159973,0.325632225222841,0.572174680239809
92,2.62787316918373,3,-0.476920894086045,-2.54981151283474,2.62787316918373,0.00624738711463951,0.0067603390901851,0.00920500029193093,1.47902402891751,1.35549237359393,0.0271438563029646,0.0536815420259221,0.0992933125939298,0.451268374696611,0.00107340440631258,0.00750850350188003,NaN,NaN,NaN,NaN,3,-99.2513675644137,1.93908958315789,stable,stable,1,0.814855465787102,0.0854161203205145,0.0544571057271111,0.964156871543071,0.355869638847142,0.78405656522788
93,1.65540112200237,2.58514857292175,-0.999891132439103,-1.29046998716443,1.65540112200237,-0.0539029726284296,0.0110324720105271,0.0550204134557738,0.770931168698375,0.971370919847092,0.176823784801806,0.240225552147471,0.157307211961218,0.379535216738005,0.156599232575509,0.0422170664812752,NaN,NaN,NaN,NaN,1.74681180591764,-126.657123786368,1.51558855986935,stable,stable,1,0.514458157468037,0.219280252257085,0.216519470815345,0.897898591189097,0.330085683572792,0.579921394977811
94,2.66956963919642,3,-0.260682532342984,-2.62391126885432,2.66956963919642,-0.0199498894541296,-0.0111101586004773,0.0228349231082513,1.74136720468143,1.39838829535506,0.063263267555222,0.240350768454168,0.124698545017557,0.505792438815969,0.00184980632128131,0.00677274583768698,NaN,NaN,NaN,NaN,3,-94.2734617915732,1.50207873829535,unstable,unstable,0,0.828099403023416,0.0785332337506516,0.0504048930614325,0.943698858722102,0.344578424436641,0.554394204380037
95,1.7926830029001,2.4471800327301,-1.13540096192746,-1.37238880640504,1.7926830029001,-0.0400489980522317,0.0198598578627146,0.0447027538224983,0.823619907569223,0.86571684963636,0.177065797298404,0.240209910204028,0.162199378645834,0.430830434254645,0.159474378789909,0.0345128759026077,NaN,NaN,NaN,NaN,1.86493072097439,-128.583435678336,2.02909264260987,stable,stable,1,0.556774795154891,0.155457336579208,0.176702040323786,0.898193741115611,0.327911387268518,0.575684565381195
96,1.72929650147756,2.57530617713928,-1.05962300304229,-1.34541563171724,1.72929650147756,0.00698441415560207,0.00281351494404284,0.00752980128803722,2.1278605439327,2.06419617360163,0.0242526956485695,0.0769440213981965,0.128768603723306,0.514001824058151,0.000105107665439891,0.00579223323816689,NaN,NaN,NaN,NaN,1.76269102467469,-127.19753908103,2.05019148156154,stable,stable,1,0.536257610821431,0.191732640593361,0.117192565506051,0.954936063680803,0.342769509456308,0.811906501731559
97,1.74287019538231,2.48927712440491,-1.07930520524654,-1.35487069423774,1.74287019538231,-0.0422469229944346,0.00214027464793074,0.0423011025632461,0.701117084891228,0.893963609000617,0.176961829676555,0.240187967237629,0.126860199458918,0.435045397183519,0.159479325466584,0.0360811994754276,NaN,NaN,NaN,NaN,1.81622668042125,-127.513201967813,2.40882817020744,stable,stable,1,0.541276786294991,0.17569676116668,0.189418193080262,0.898986308281144,0.34361768912937,0.57746439559739
98,1.86497987289818,2.709397315979,-1.18052030194041,-1.41061718152747,1.86497987289818,-0.0721448208451653,0.0132833442597517,0.0733574972958053,0.936787456686424,1.07198195796492,0.176784775096197,0.240252118920101,0.17278603083812,0.49697189413509,0.156746264617579,0.0404151603215294,NaN,NaN,NaN,NaN,1.91962505408224,-128.853168090004,1.82518191560751,stable,stable,1,0.579855435535338,0.203442799197416,0.206427107950253,0.895824424193926,0.323206208516391,0.572478061557221
99,2.62773664236069,3,-0.159312922767076,-2.59256995096983,2.62773664236069,0.00590201821496262,0.00491268643183969,0.00767908243134115,1.8916334417596,1.65832529872382,0.0327059054734459,0.0600415654287598,0.119869603188251,0.469071470398911,0.0133158792975172,0.00426531796339693,NaN,NaN,NaN,NaN,3,-92.2002194325483,1.74193559618886,stable,stable,1,0.814777537721878,0.0851670872479246,0.0585694456393916,0.955754514302336,0.346724620805222,0.78282735232608
100,1.65358903781086,2.3118884563446,-1.04594302763819,-1.26131629234926,1.65358903781086,-0.0524822764158497,0.0091605607468666,0.0532757469303499,1.10971587283588,1.26675306026583,0.176334724911665,0.240199589530344,0.150423968613191,0.434567563749654,0.156652039561395,0.0386947380695583,NaN,NaN,NaN,NaN,1.68546986904653,-128.540481584722,1.50082944376499,stable,stable,1,0.513855702483076,0.157884589440656,0.178424696201822,0.893160381641226,0.333144902838582,0.57930008794605
101,1.62629885495114,2.27659773826599,-1.05011116587081,-1.22884235229548,1.62629885495114,-0.0419463639822467,0.00624375940535649,0.0424085130939898,1.04681675456935,1.22783279468484,0.177012769215767,0.240184619308449,0.170073310969253,0.517616966694129,0.156755146129686,0.0415715450216495,NaN,NaN,NaN,NaN,1.69807149429304,-129.55767099295,1.82949657498011,stable,stable,1,0.505142177007048,0.154092142813072,0.177241164985677,0.893621368933691,0.324411861791443,0.580446343574997
102,2.63215900619825,3,-0.147571597979654,-2.59602318694148,2.63215900619825,0.00300766828421385,0.00665006003544729,0.00729858664283155,1.94073830009854,1.70455924181092,0.0285228852921245,0.0747494093405342,0.120297291527894,0.474014434471314,0.00221634761773709,0.00679555417628106,NaN,NaN,NaN,NaN,3,-91.8482151525671,1.90889259514108,stable,stable,1,0.816139592276456,0.0841022978232468,0.0539175326891658,0.957096933810363,0.346534537098714,0.782891647103862
103,1.71073713432364,2.50501537322998,-1.07561171576895,-1.30908272224424,1.71073713432364,-0.0462548084790999,0.0148257294462981,0.0485727244557379,0.757860115257532,0.949072449354445,0.176943460968511,0.240262958532721,0.155121999868245,0.363106545800219,0.159596607471783,0.0335699727438624,NaN,NaN,NaN,NaN,1.75398132014352,-128.600052606655,1.88038675536789,stable,stable,1,0.531461875210962,0.187617603237479,0.195709650301452,0.898116656508079,0.331056888947447,0.578268518932718
104,2.67909899820764,3,-0.366633858949674,-2.61994639189325,2.67909899820764,-0.0263271127037677,-0.0130906229877175,0.02940206240255,1.49091989364615,1.16500103167216,0.062413125662076,0.240273116476771,0.108797398408654,0.437608715051411,0.00185203422099808,0.00758827513858339,NaN,NaN,NaN,NaN,3,-96.2939600424606,1.98925967405676,unstable,unstable,0,0.831206737567096,0.0775931035104143,0.0501383612043589,0.947925487041461,0.351645600707265,0.554603569522426
105,1.73884035048842,2.50260066986084,-1.1253209114734,-1.31070985703398,1.73884035048842,-0.0433631921531301,0.00393130242245546,0.0435410332037044,0.963173098915959,1.12668750138021,0.176222267672071,0.240247624900339,0.181858741675961,0.49419043478437,0.156633585326981,0.0423488229367391,NaN,NaN,NaN,NaN,1.78074250763471,-129.221424924807,2.18646871023086,stable,stable,1,0.540056466092829,0.179828594612808,0.192911655556672,0.895468532875923,0.319173892588462,0.57704600045945
106,1.83865306138992,2.95497012138367,-1.07312806951072,-1.46171269030967,1.83865306138992,0.00722610152499124,0.00367009547219955,0.00810469888549478,1.57976770763119,1.58555814821686,0.0336559160046872,0.0521740347391634,0.109638851185983,0.423458644394667,0.0165103874715626,0.00489379436189039,NaN,NaN,NaN,NaN,1.88415857146299,-124.959215831678,1.65730162127397,stable,stable,1,0.570171558671538,0.252657199960933,0.160711831550063,0.95830162455885,0.351271621695119,0.808847186958159
107,1.53528278174044,2.12881588935852,-0.926613598410789,-1.20955862526105,1.53528278174044,0.0569289326694358,0.029139437309084,0.0639531874230769,0.701646161495805,0.745413315323009,0.177252351612295,0.240192210755519,0.141341124274326,0.410403911558801,0.159794807237198,0.0344092153247731,NaN,NaN,NaN,NaN,1.72726488943798,-126.550224489005,1.6973441889238,stable,stable,1,0.477429903379407,0.145269700241633,0.170694176408905,0.900004071161705,0.337181722544744,0.583984739487788
108,1.56728345058003,2.38986015319824,-0.988460628290663,-1.20664178899225,1.56728345058003,-0.0203943746010655,0.0188437393217666,0.0277671933582651,0.541908818508816,1.01117472857882,0.141924287984232,0.240250642257237,0.161631807857467,0.402836178434524,0.156704480861881,0.040381540887589,NaN,NaN,NaN,NaN,1.72684939224008,-126.925173742408,2.35560557641278,stable,stable,1,0.48650577085817,0.190170410204779,0.198432878747877,0.916835056709338,0.328163640952237,0.58610262047878
109,2.62819665630658,3,-0.314476514867657,-2.57664789702299,2.62819665630658,0.00622702841474421,0.00963173284499004,0.0114693574569499,1.96900083277628,1.78785362369879,0.0351796581201637,0.070816543011477,0.12408939349234,0.448287462310432,0.0261335381600908,0.00555353936125911,NaN,NaN,NaN,NaN,3,-95.4171668207032,1.50492111781925,stable,stable,1,0.815008581795703,0.0857584678647926,0.0650894554264445,0.9528920287819,0.344849158447849,0.557316699231824
110,1.61515278313436,2.53245043754578,-0.942519915992242,-1.28430369300582,1.61515278313436,-0.076245306318728,-0.00055002435986401,0.0762472901973119,0.822709874797791,0.996700980785037,0.177365666513959,0.240210870687304,0.163493417316175,0.383255281705239,0.159475010711084,0.0350273378566969,NaN,NaN,NaN,NaN,1.65985778043302,-125.136897277648,1.85752353235301,stable,stable,1,0.502476466209588,0.220370642112077,0.215837381571577,0.89702179573487,0.327336258970589,0.580726476329911
111,1.54093470378798,2.37032151222229,-0.930274016447731,-1.19954939331174,1.54093470378798,-0.0482355886601971,0.019300488631733,0.0519536415934378,0.8714133013918,1.00441317348463,0.176330624135364,0.240178439693373,0.17420823580056,0.529624530493009,0.156597922390145,0.0407495083037628,NaN,NaN,NaN,NaN,1.59306398738573,-126.486183134521,2.35939377227643,stable,stable,1,0.478902009811454,0.19613686618985,0.202099199351303,0.897096051344003,0.322574117421973,0.583574841100606
112,2.62737432678541,3,-0.243166583867921,-2.58140533181205,2.62737432678541,0.00582235305447853,0.00479220783230659,0.00754089192330828,1.73102097919956,1.49732026643377,0.0231673244964085,0.0545122737238993,0.110439291942607,0.435458737605739,0.000508561850372888,0.00571931018845034,NaN,NaN,NaN,NaN,3,-94.1056534981467,2.13923494424682,stable,stable,1,0.814661995448353,0.0852232733258903,0.0534397406440253,0.963050799393248,0.35091587024773,0.783935988679804
113,1.7155981153047,2.46362042427063,-0.984713239827379,-1.38414999080154,1.7155981153047,-0.0476807433852192,0.0228750509925972,0.0528840358490258,0.881966805337317,0.920493911468449,0.176953756593759,0.240229235634173,0.162221135737258,0.396257972732649,0.159493977987823,0.0353731794185056,NaN,NaN,NaN,NaN,1.77528590773906,-124.910768203071,1.93328933138031,stable,stable,1,0.533069376580934,0.178000426089656,0.190549442426828,0.89736093035679,0.327901717450108,0.577921730178758
114,2.66932232077442,3,-0.427707518994355,-2.5970397358891,2.66932232077442,-0.0309598386512161,-0.00602464737375781,0.0315405768065116,1.73383046944718,1.47816071592779,0.0623745376019685,0.240319842293965,0.122000865189636,0.445132353023888,0.0018517380395302,0.00760525748171202,NaN,NaN,NaN,NaN,2.9979851142919,-97.9705526263991,1.57685515288544,unstable,unstable,0,0.828225866232222,0.0801849169069493,0.0516994930035732,0.943575657599641,0.345777393249051,0.554231413120663
115,1.80957933591337,2.84656858444214,-1.0295807807775,-1.45762100776573,1.80957933591337,-0.0583666150072803,0.015150876910503,0.060301001803994,0.954177896896975,1.03566223921252,0.177312772078557,0.240250692499406,0.160489791642511,0.487855907890453,0.156641934570232,0.040407325785834,NaN,NaN,NaN,NaN,1.89315516909655,-124.179562229341,1.85872775095447,stable,stable,1,0.56237661750857,0.244377764583039,0.230938869349624,0.895709155748432,0.328671203714439,0.57448977741351
116,1.65826282024384,2.48911929130554,-1.00634698698204,-1.29705698257275,1.65826282024384,0.00650635244562033,0.0031038541556188,0.00720878164227366,1.48391297406151,1.42239250735422,0.0206603279030953,0.0582163898626081,0.103282847027759,0.492306765496614,0.00031981100601049,0.0054344262175912,NaN,NaN,NaN,NaN,1.69700248239393,-126.66944677606,2.20764318553492,stable,stable,1,0.514229679180575,0.188264315956634,0.115076882787089,0.966834578694472,0.354096512432107,0.816005491467506
117,1.60728917397609,2.30329346656799,-0.951462955572473,-1.27820810927664,1.60728917397609,-0.0477588888413089,0.00378858062495711,0.0479089219927594,0.831304104656682,0.799998142022954,0.176378430057638,0.240191614535327,0.140434408572459,0.427825463762652,0.159543081998586,0.0379599146947449,NaN,NaN,NaN,NaN,1.6721231422542,-125.43586516234,1.83966053844259,stable,stable,1,0.499377518779087,0.165384268198517,0.183942202706469,0.898993410175841,0.337584707301129,0.58177370723728
118,1.74984514632193,2.43021726608276,-1.07089486072261,-1.37011614463228,1.74984514632193,-0.0459053331845841,0.00344945014374741,0.0460347512329748,1.03246905196895,1.16912414268557,0.176627569061499,0.240200732046763,0.160754154660939,0.496324423812401,0.156694887004522,0.0412969202883552,NaN,NaN,NaN,NaN,1.78141492798702,-127.597402747289,2.14764066419606,stable,stable,1,0.543526139555233,0.161523431338901,0.181573292728388,0.894387983225536,0.328553709039583,0.576482622081791
119,2.57817513187726,3,-0.363666946779653,-2.52141745178871,2.57817513187726,0.00657721930164396,0.0094533002569023,0.0115162797590657,1.68111755928726,1.75739266066919,0.0295341231819966,0.0722383720800762,0.112819987515077,0.516806210097113,0.00639442023684118,0.00587267859256925,NaN,NaN,NaN,NaN,2.88139783872518,-96.8469577847742,1.88593917290353,stable,stable,1,0.79950300407633,0.0970219132834445,0.0631906320079809,0.958216072395058,0.349857783326632,0.784740184177464
120,1.71274363183651,2.39147901535034,-1.02499572101057,-1.35919849110737,1.71274363183651,-0.0377028509046042,0.00409309762138591,0.037924377575288,0.846655676913708,0.924830719901786,0.176311457726992,0.240182828220318,0.129814535095327,0.466635722946387,0.159456778950327,0.0372915816017626,NaN,NaN,NaN,NaN,1.76744363452008,-125.864521808831,1.7646425013269,stable,stable,1,0.531835428012741,0.159668263846082,0.180231212969042,0.897925449447239,0.342304651068743,0.578360972774832
121,1.70254473134774,2.3393657207489,-0.983639043476805,-1.37625761849811,1.70254473134774,-0.0443640306793857,0.00205282776170661,0.0444114998614178,1.10947010709954,1.21810497999973,0.177225752102308,0.240181560253219,0.168390877226884,0.529516931408708,0.156677376389029,0.0400076250407772,NaN,NaN,NaN,NaN,1.76448514358837,-124.664357217421,2.40813490929233,stable,stable,1,0.528825135047899,0.151426830923188,0.175038715347703,0.89309903397878,0.325159610121385,0.577854950080441
122,2.62234997550646,3,-0.381051157362264,-2.56272821650452,2.62234997550646,0.00824794223780694,0.00405825101824049,0.00919227678463012,1.5780290140049,1.41846910253597,0.0257602184135347,0.0493861275575722,0.104536134469274,0.418768568417124,0.0015556683431596,0.00448154480958719,NaN,NaN,NaN,NaN,3,-97.1526305433791,2.02887473468955,stable,stable,1,0.813142978865312,0.0866565062548943,0.0543149645634837,0.963575977020412,0.353539495791434,0.784149157505371
123,1.61499516574704,2.26868653297424,-0.923853496891563,-1.30413399477948,1.61499516574704,-0.0571661624261967,0.00623106880532109,0.0575047506297953,0.921880177901991,1.02514755284333,0.177100853620967,0.240178961189586,0.161776060442905,0.411556256515854,0.156619141501324,0.040260462934417,NaN,NaN,NaN,NaN,1.66518818535526,-124.488998271363,2.33548432262212,stable,stable,1,0.501990278896277,0.157623095241583,0.17882253281866,0.896151498162232,0.328099528692042,0.580929048701535
124,2.67834771359825,3,-0.565267421823553,-2.58133462554685,2.67834771359825,-0.028309217982788,-0.00529517949650764,0.0288001866087225,1.3110848531203,1.05404608392023,0.0637756821694391,0.240234569445261,0.100010920686639,0.445246807744297,0.00189165853207296,0.0080170511177907,NaN,NaN,NaN,NaN,3,-100.530616564359,1.58252784427446,unstable,unstable,0,0.83095979556966,0.0776517986519936,0.0503471076321222,0.949528987267105,0.35555070191705,0.55487904413247
125,1.56859135871031,2.34702086448669,-0.817437128602955,-1.32647562358027,1.56859135871031,-0.0416085381265828,-0.00704917230859471,0.0422014368862904,0.786998734199249,0.820285471579107,0.177904277648374,0.24017984816732,0.169488627312639,0.44581460074739,0.159477808408117,0.0380834083573346,NaN,NaN,NaN,NaN,1.59718321662841,-120.692341177793,2.12035729108208,stable,stable,1,0.487248021394209,0.182883568895507,0.194457679426407,0.898419199558983,0.324671721194383,0.583045135630252
126,1.55576552848021,2.44519710540771,-0.860542385223608,-1.27842087227581,1.55576552848021,0.00544027129091067,0.00244608752896269,0.00596488859225834,1.39103924283172,1.32922973991063,0.0288081542865491,0.0497312095121772,0.0956764904758983,0.461111297213882,0.00726162456026453,0.00491495105564415,NaN,NaN,NaN,NaN,1.57811714801433,-123.111297136965,1.86451596022416,stable,stable,1,0.482426494562685,0.201215667717269,0.125744044253137,0.964222380849464,0.357477115344045,0.818966591901448
127,1.47065685598218,2.15182518959045,-0.736281886797228,-1.26248086017474,1.47065685598218,-0.0410909950261999,-0.0121180033655212,0.0428405868051544,0.697903665696682,0.817011698317685,0.177166971882996,0.240157334362786,0.10763749839848,0.451893065244531,0.159485477677231,0.0351419552333405,NaN,NaN,NaN,NaN,1.53181850141805,-119.504479623187,2.37560119297776,stable,stable,1,0.456903239046595,0.161116982642807,0.180331516921022,0.899513607626961,0.352161111822898,0.586380983055533
128,1.60148606454434,2.33858060836792,-0.855430455922442,-1.33466713939326,1.60148606454434,-0.0440857460843123,0.0135820870331532,0.0461305332289429,0.760038992240861,0.95855368283261,0.176413248397992,0.240189745524212,0.156446500343925,0.444953742411687,0.156674657603585,0.0401692625825114,NaN,NaN,NaN,NaN,1.67347133841587,-121.814224359451,1.61635141530651,stable,stable,1,0.497537059117421,0.174303536785612,0.188822307803974,0.898290147639712,0.330468222069367,0.581887940716759
129,2.61560149153074,3,-0.51438115079623,-2.53108475625331,2.61560149153074,0.00388208481181667,0.00690620966514237,0.00792251944933198,1.80275426971534,1.56618959535509,0.0303865938104247,0.0512413146363147,0.114214159515661,0.418579535444762,0.00937535325698119,0.00532909467564103,NaN,NaN,NaN,NaN,2.98812679975473,-100.15154225882,1.8207010235339,stable,stable,1,0.811021321161679,0.0879421263046285,0.0588699520618705,0.958336429869234,0.349238151326373,0.783604771915273
130,1.65449357032776,2.32849502563477,-0.928600446571945,-1.35732867600452,1.65449357032776,-0.0386907311961107,0.00572659458367115,0.0391122303891689,0.721404051119115,0.853860597666609,0.177484057865496,0.240173072382431,0.142849165097758,0.433884205555319,0.159536301097506,0.0390539982727873,NaN,NaN,NaN,NaN,1.67291748571223,-123.514973806059,1.74925216472288,stable,stable,1,0.513805625510686,0.158820903015424,0.180399018436635,0.898880891683935,0.336511482178774,0.580376628685128
131,1.50174697645667,2.25462102890015,-0.746124819241601,-1.28644192113575,1.50174697645667,-0.0527599310005972,-0.00866941937990094,0.0534674588097506,0.863440410630422,0.907376521218242,0.176674955097017,0.24014123394877,0.156329897066367,0.451772421810173,0.159500993100317,0.0368183678125449,NaN,NaN,NaN,NaN,1.54515709711904,-119.107877075441,1.57084288142104,stable,stable,1,0.466789136740463,0.179199029248235,0.191797245202129,0.897748960844109,0.330520045748281,0.584919886862604
132,2.62452063560486,3,-0.453716907030839,-2.55050012219105,2.62452063560486,0.00658817407125317,0.00603054177541418,0.00893148765313753,1.69340921638318,1.65333932017048,0.0252185834325288,0.0561633915549147,0.109709396830723,0.450654870228234,0.000292326969000127,0.0050283085397359,NaN,NaN,NaN,NaN,3,-98.8062245222683,2.0271491581437,stable,stable,1,0.813809798416079,0.0861202963919821,0.0536305767651539,0.9610948269251,0.351240268075234,0.783711002347677
133,1.75111727714539,2.33887696266174,-0.845721765707341,-1.51009438892844,1.75111727714539,0.0365723953718689,-0.0657654089061502,0.0752504426022163,0.618911318308821,0.705637144037098,0.168150710545389,0.240221896249301,0.147721440309307,0.402643602384375,0.159779814651245,0.0349265281141684,NaN,NaN,NaN,NaN,1.68330103474598,-120.509023497779,2.2384490083455,stable,stable,1,0.544602199575788,0.146041843718253,0.17133891286494,0.905517478237445,0.334346026529197,0.577599427482853
134,2.60934596852614,3,-0.626903143368211,-2.49724706132173,2.60934596852614,-0.0317205995458349,-0.00845517323410606,0.032828134122517,1.27681911211085,1.02802751340423,0.0628290703716731,0.240518892585571,0.102670338530794,0.400205558146216,0.00189042193953594,0.00955588055879404,NaN,NaN,NaN,NaN,3,-102.269542710179,2.01733039962565,unstable,unstable,0,0.809663240039296,0.0939156483374126,0.0606644421888735,0.950475955613688,0.354368738430758,0.557193157017809
135,1.65667927832831,2.35056972503662,-0.854523157388253,-1.39976857328178,1.65667927832831,-0.0504928453770738,-0.000640980183092243,0.0504969136667599,1.15689671791361,1.21740472326084,0.177274533554661,0.240220095634244,0.176721141263919,0.509616667352432,0.156649223245864,0.0413271432927481,NaN,NaN,NaN,NaN,1.71044333906111,-120.370167332204,1.6715296990655,stable,stable,1,0.514748837600666,0.165383118014944,0.183879799913582,0.892707507613442,0.321457270549369,0.579180353607178
136,1.63678411662579,2.46888971328735,-0.767531298027821,-1.42072123155945,1.63678411662579,0.00586019328973446,0.00348134771730049,0.00681627811358971,1.37021093399579,1.49591000098707,0.0269674196612174,0.0509650272078364,0.100899386248828,0.470238008659316,0.00367486389512425,0.00863673082228409,NaN,NaN,NaN,NaN,1.66149639163359,-116.91481150861,1.93176362158932,stable,stable,1,0.507562122643311,0.188473410236344,0.117857948374005,0.963996768537383,0.355155828333854,0.816284746623282
137,1.46156343108132,2.06078696250916,-0.69040514591987,-1.27632362624655,1.46156343108132,-0.0269992378037769,0.0185446643271882,0.0327545938303772,1.06412002384155,1.04572289806966,0.176898503832694,0.240145740784335,0.156468273127812,0.473814211775005,0.156631794839357,0.0428551205069041,NaN,NaN,NaN,NaN,1.50463962214456,-118.009747287404,1.56397090768622,stable,stable,1,0.453848937491251,0.140830303440166,0.169695993288143,0.894973410840065,0.330458545276528,0.586171994723835
138,1.58545505432856,2.1578266620636,-0.717571769396949,-1.40040156403853,1.58545505432856,-0.0429877378642382,-0.00377253723662476,0.0431529563748091,0.791368660985051,0.734993555961376,0.177113775081007,0.240174689096627,0.125360322547052,0.477329379177749,0.159468571138133,0.0382641018486635,NaN,NaN,NaN,NaN,1.62198882751374,-116.427624599585,1.7770658510105,stable,stable,1,0.492497969157264,0.136694987075766,0.166806131605356,0.899450266469203,0.344284301090199,0.582635073968143
139,2.63432664235433,3,-0.525775262764092,-2.54657091422528,2.63432664235433,0.00529794412428518,0.00373016842257191,0.00647938024851147,1.70319057106261,1.75785454203462,0.0333399360165831,0.050750295296628,0.119355948386976,0.456930957180326,0.0279678503306773,0.00426470895613561,NaN,NaN,NaN,NaN,3,-100.33835635475,1.51701023256697,stable,stable,1,0.816792444668974,0.0834643918491696,0.0640595940688016,0.956136106103087,0.346952911828011,0.557691410884598
140,1.55551960881875,2.42548251152039,-0.742462562095993,-1.34273284503547,1.55551960881875,-0.0556858358000585,0.011385997736984,0.0568379560964122,1.08100104808131,1.01195525376762,0.176972192018838,0.240189068193442,0.15009531307451,0.442163453677635,0.156675454045557,0.043419146153804,NaN,NaN,NaN,NaN,1.62484937329115,-117.662804067615,1.71410212769169,stable,stable,1,0.483537297709397,0.206161945058876,0.20911948258625,0.895069247333196,0.333290971966884,0.582711335581683
141,1.52621052621984,2.16865038871765,-0.768139412571956,-1.30061356897993,1.52621052621984,-0.0517118231823234,-0.00225900721380759,0.051761141510132,1.0745450851769,1.08202667633342,0.176060533717161,0.240145461272823,0.158795462881282,0.490228434416092,0.156667688502674,0.0402422602962059,NaN,NaN,NaN,NaN,1.58700801541868,-119.377240163094,1.71740648998219,stable,stable,1,0.474333023096721,0.154038511672198,0.176686739980906,0.895025240729553,0.32942423871943,0.583746124030861
142,2.64067144989967,3,-0.620274417984942,-2.53330712855822,2.64067144989967,0.00714801433041708,0.00216415107369576,0.00746844419793216,1.89510991441422,2.15029814867988,0.0177268781913314,0.0498932668604317,0.135391564754638,0.425639246736435,0.000161793911543407,0.005708154967907,NaN,NaN,NaN,NaN,3,-102.460692774955,2.36159755513623,stable,stable,1,0.81878241316685,0.0822181385421944,0.0514784842460496,0.959351211837166,0.339825971220161,0.782950161880372
143,1.44498475271017,2.27860760688782,-0.62936371082512,-1.27888675212587,1.44498475271017,-0.0551427510240933,-0.00124994235647437,0.0551569156715606,0.851395830338565,0.829098998719027,0.177266523753694,0.240170755520124,0.142585370181779,0.389514746190961,0.159483394507621,0.0353104814345843,NaN,NaN,NaN,NaN,1.50542716708844,-115.316950545559,2.30957585002768,stable,stable,1,0.449232268039157,0.197677243396423,0.202328029775029,0.898162850180557,0.336628724363654,0.586797177039751
144,2.6098598660574,3,-0.556723911046868,-2.51881745480498,2.6098598660574,-0.01814769906863,0.0148313342616969,0.0234373090918676,2.23150879894665,1.74063050405345,0.0633753213373039,0.240301513074202,0.157373986088285,0.513110141150232,0.00195230294931567,0.00782110141129239,NaN,NaN,NaN,NaN,3,-100.955060334027,2.27728183828937,unstable,unstable,0,0.809603429023272,0.0920783701372601,0.0589587491588855,0.937102673379204,0.330056006182984,0.555334802450907
145,1.6362888330505,2.38733339309692,-0.742137572177226,-1.44019381574507,1.6362888330505,-0.0474717632778309,0.00176940248386715,0.0475047270685384,0.797194712651257,0.889538456337101,0.177145853919182,0.240260134314763,0.158414801241554,0.394699794495871,0.159519402141214,0.0373135738400139,NaN,NaN,NaN,NaN,1.68254359450145,-116.590495520199,1.70889318705457,stable,stable,1,0.508357981877255,0.177694225973011,0.191082619952028,0.898174169569786,0.32959342167042,0.580715405637627
146,1.7499321560065,2.4691309928894,-0.825262523705371,-1.5310153185902,1.7499321560065,0.00300216323856451,0.00320624056394258,0.00439237551500996,1.88844531210495,1.7262560286533,0.0213707762188742,0.0739802401447577,0.121204855291055,0.507626040645794,0.000163443209516459,0.00486510705327768,NaN,NaN,NaN,NaN,1.779143412243,-117.297381887505,2.18843502498838,stable,stable,1,0.54258145712403,0.162625007143073,0.0994167755498511,0.960913387070319,0.346131175426198,0.812187346418824
147,1.4181138816334,2.23626708984375,-0.68621843172976,-1.22455123946613,1.4181138816334,-0.0498648846953174,-0.00587907621534716,0.0502102605333129,0.705112970587277,0.827716983738186,0.174779691653724,0.240158474744816,0.12895702682094,0.400462731046193,0.156626673506105,0.0401260660844974,NaN,NaN,NaN,NaN,1.48754464037965,-118.732441752547,2.06217570950716,stable,stable,1,0.44078687605213,0.193289686278437,0.200176963416663,0.900566490246295,0.34268576585736,0.588117592824526
148,1.69289367863921,2.42706942558289,-0.760774962656619,-1.49460254769964,1.69289367863921,-0.0486354234102204,-4.25031872038086e-05,0.0486354419822863,0.894936016583381,0.852885875302047,0.177952077499876,0.240192456250703,0.152609501856263,0.419033782456357,0.159537460942048,0.0353713556380876,NaN,NaN,NaN,NaN,1.75445964810256,-115.915142708198,1.58574394131405,stable,stable,1,0.525931867357742,0.174106040759079,0.188231473793036,0.897291074956677,0.33217355473055,0.578723496453037
149,2.56997770746549,3,-0.608155278368533,-2.46449369350106,2.56997770746549,0.00407428179301434,0.0049452039291812,0.00640740306443081,1.90606539759987,1.66778425757757,0.0182856919385109,0.0475406477690957,0.122767411955879,0.40307932616002,0.000461820782887601,0.00799358419196567,NaN,NaN,NaN,NaN,2.89228411426449,-102.374592577792,2.35132480953768,stable,stable,1,0.796842595385805,0.0979297063820771,0.0618698353985171,0.962776906740065,0.345436705797387,0.785780130964754
150,1.51599848554248,2.46926617622375,-0.644723693539739,-1.35163376727732,1.51599848554248,-0.0488456249248548,0.00193533207659188,0.0488839501733061,0.854284475758639,0.862522300244342,0.178266806694631,0.240202696959223,0.161521372268033,0.433935409246333,0.1594981726145,0.0340829751632671,NaN,NaN,NaN,NaN,1.57055207434036,-114.528428258895,2.2614403812098,stable,stable,1,0.471100156022212,0.22344728793506,0.21735025862887,0.897377400555518,0.32821272343643,0.584481190175164
151,1.46920676417902,2.20696997642517,-0.644655142511491,-1.29661793503918,1.46920676417902,-0.0572013265843397,-0.0041298660304934,0.0573502184515291,1.06667561316952,1.09022978829671,0.176890754988881,0.240155929483444,0.148266538074699,0.474624408978395,0.156631539204017,0.0393253251347958,NaN,NaN,NaN,NaN,1.53043490962982,-115.371127707452,1.66900867660155,stable,stable,1,0.456792268659366,0.176510929471497,0.189820693337741,0.894607508636896,0.334103760855689,0.585438277636814
152,2.62779703338941,3,-0.654894676302338,-2.51350166521768,2.62779703338941,0.00599630313555554,0.00254071987332917,0.00651236583494839,1.43305926541275,1.25809766200856,0.0222288272204089,0.0476382342691539,0.097833243922452,0.393062997154686,0.000113392999491743,0.00411383045345417,NaN,NaN,NaN,NaN,3,-103.235441300153,2.17927720852571,stable,stable,1,0.814769035553532,0.0849396012237901,0.0525100959696477,0.967740781960057,0.356518558256688,0.784643747306741
153,1.47653875586127,2.19562411308289,-0.698256990534103,-1.29059933496884,1.47653875586127,-0.0300216878289244,0.00377571893339589,0.0302581855629413,0.715346277816695,0.65925511126461,0.176915588154871,0.24015513804449,0.094837911209796,0.397392515944753,0.159479213479665,0.0358228050773997,NaN,NaN,NaN,NaN,1.53053947457772,-117.277382087191,1.5994245548367,stable,stable,1,0.458433038646796,0.167341539394736,0.184311048645848,0.900741766436926,0.357849817240091,0.586594237152696
154,2.67449365108471,3,-0.66017089663079,-2.55678008583535,2.67449365108471,-0.0255470301710241,-0.00759787542888529,0.0266529259480469,1.37189367182434,1.05267974047924,0.0630812135546851,0.24035687296536,0.102464667922819,0.392720939458773,0.00185137965603502,0.00881288088412215,NaN,NaN,NaN,NaN,3,-102.931426400997,1.71609178391798,unstable,unstable,0,0.829714933441715,0.0781252982630817,0.0509026983183939,0.949409173554558,0.354460147589858,0.55502390616884
155,1.62551764079503,2.45152115821838,-0.778487146069888,-1.40255464489536,1.62551764079503,-0.0586802382544629,0.00238404161809013,0.0587286473200032,0.762177349495681,0.847991377199257,0.177250405376423,0.240204707239061,0.164032050121085,0.436072770271219,0.159487568420332,0.0361658113734485,NaN,NaN,NaN,NaN,1.68981233095603,-117.495671617653,2.02448355855146,stable,stable,1,0.505280803750592,0.196617710095589,0.202005193935523,0.898723471602042,0.327096866612851,0.580951446086368
156,1.62137439111869,2.28185939788818,-0.7037573607047,-1.44142065865241,1.62137439111869,0.00663887516855993,0.00403340215808176,0.00776807546774233,1.26813860638324,1.39284728010367,0.0259597106005806,0.0488648393779108,0.0978438210718123,0.421452093546169,0.000860611525412257,0.00513855348794131,NaN,NaN,NaN,NaN,1.64682358488304,-115.230680905002,2.01418795511992,stable,stable,1,0.50280731634104,0.150033273692223,0.0922710231313342,0.966112398448741,0.956513857301417,0.942086250735268
157,1.63015631672476,2.42724108695984,-0.709913893053441,-1.45036089240152,1.63015631672476,-0.0427462217589374,-0.00180208065798294,0.0427841906475059,0.87473324804867,0.888265674244408,0.177470442829565,0.240173971148547,0.137573465881031,0.399077916207649,0.159460095937945,0.0360256585334488,NaN,NaN,NaN,NaN,1.69535374865113,-115.407012304463,1.85818372807273,stable,stable,1,0.506346755966452,0.187187841588268,0.196284098169867,0.897412644195772,0.338856237386208,0.58088309299948
158,1.56789401315507,2.3881824016571,-0.713183434421746,-1.3812155579091,1.56789401315507,-0.00225928593477645,0.035274012932532,0.0353462920445626,0.657598854736644,0.77382509473792,0.177069116446235,0.240178274671705,0.0980875616749496,0.447277641798189,0.159288542169494,0.0369389244147113,NaN,NaN,NaN,NaN,1.65925020896733,-117.23842078182,2.24975118296324,stable,stable,1,0.486871890892446,0.19104504095446,0.198854268354366,0.900218539316725,0.356405528144467,0.583457665359189
159,2.45143722969553,3,-0.712954606449372,-2.31204231947139,2.45143722969553,-0.0145756139781932,0.00366805316245536,0.0150300744124538,1.22436959962373,1.11853646504688,0.0282910941880433,0.0572385111072807,0.127935012206777,0.434231537591475,0.0254924777878519,0.00423052724666452,NaN,NaN,NaN,NaN,2.88835322200788,-105.56852442763,1.71197131026625,stable,stable,1,0.760296242941904,0.12618213696079,0.0885776458486495,0.967445905254995,0.343139994574766,0.790182149520927
160,1.52122175288038,2.12556385993958,-0.661538382878216,-1.35935299905585,1.52122175288038,-0.031186106792086,0.00286446585808001,0.0313173820984369,1.07287574354402,1.06600559603804,0.17673103607294,0.24016139017091,0.146289860031587,0.454275057425118,0.156633733642563,0.0392587904549494,NaN,NaN,NaN,NaN,1.56544004446909,-115.546181583882,2.1518682663344,stable,stable,1,0.472309482308549,0.141718494139699,0.168922013015647,0.894828985723957,0.334982284430406,0.584236586703258
161,1.6326926699301,2.4770359992981,-0.76141260470835,-1.42129343980795,1.6326926699301,-0.0653408240746903,-0.0113442805758656,0.0663182930460638,0.968514564224455,0.960238674624452,0.176988484029555,0.240228669931115,0.172709729110104,0.417334669414993,0.159487151916578,0.0377857557769379,NaN,NaN,NaN,NaN,1.70136515468512,-117.053321105748,1.95833702993021,stable,stable,1,0.507682154516073,0.20213560283291,0.205904815157314,0.896351268251409,0.323240120395509,0.580229608336677
162,2.56591654459635,3,-0.708460355011858,-2.43416769060453,2.56591654459635,0.00673760158673197,0.0055219145295629,0.0087113038756165,1.91916475139142,2.10724971581428,0.0151206456008547,0.066717185905141,0.13648243512891,0.488302010632555,0.00027637482657372,0.00454837863700678,NaN,NaN,NaN,NaN,2.85921158454158,-105.062668776886,2.45683592574521,stable,stable,1,0.795637392581968,0.0992658498430166,0.0613362990300674,0.960803563528671,0.339341139942706,0.785575799012096
163,1.68165435596388,2.35754823684692,-0.7755875586788,-1.48112617454468,1.68165435596388,-0.0289196015780163,0.0136192597068539,0.0319660380778403,0.928212163882746,0.972418542529197,0.176654610256348,0.24020343806177,0.16258802439982,0.430590393452304,0.156718700786803,0.0423906084623728,NaN,NaN,NaN,NaN,1.71874998102098,-116.787170824054,2.38111902694322,stable,stable,1,0.52205872457062,0.157936563512955,0.179829460726609,0.896739167892875,0.327738655822302,0.579297702948743
164,2.48492560124909,3,-0.757851820125499,-2.3338502597891,2.48492560124909,-0.0212386791476875,-0.0021098336247771,0.021343216483526,1.71454100155237,1.31129111095281,0.0626954603760422,0.240294154433738,0.119203463343693,0.454012058460075,0.00193175065360986,0.00801025616804465,NaN,NaN,NaN,NaN,2.64390369362176,-106.697557678757,2.08975526641977,unstable,unstable,0,0.770824944771835,0.119804662740934,0.0756541739153525,0.944877874642295,0.347020682958359,0.560598092867287
165,1.61059017246272,2.29646492004395,-0.67720309480658,-1.44909603858539,1.61059017246272,-0.036145283393742,0.000149744774251669,0.0361455935780745,1.12239417237131,1.10570978555509,0.176975647672637,0.240187110701234,0.152836082358082,0.487512653121943,0.156669016262847,0.0400341447380793,NaN,NaN,NaN,NaN,1.65443912380199,-114.70021335318,1.75185802490805,stable,stable,1,0.500126350646933,0.160948510361755,0.180757650925499,0.894005645065689,0.332072852285297,0.581124118267198
166,1.65406345585982,2.55115747451782,-0.727833295116329,-1.46072879869016,1.65406345585982,0.00669566734045081,0.00537087847022319,0.00858360627451461,1.57421522899515,1.58666257251237,0.0271145925496916,0.0607550292133707,0.110388532070883,0.485336162666581,0.000704150567661653,0.00577704669251266,NaN,NaN,NaN,NaN,1.6985678915868,-115.061450151433,1.98055376192893,stable,stable,1,0.51295995546295,0.203419815348378,0.124465589268699,0.961607235284738,0.350938430190719,0.815333809867463
167,1.47722747171817,2.09923696517944,-0.695745367673684,-1.29317272130217,1.47722747171817,-0.030115431449492,0.000797069971335303,0.0301259776924875,0.75184174451097,0.615865104769544,0.176739190982371,0.240135990551064,0.132566284891155,0.378350111691294,0.159474870071661,0.0371742329422517,NaN,NaN,NaN,NaN,1.53242316823457,-117.234742424214,2.01655709803958,stable,stable,1,0.458643455712125,0.145475231939075,0.171680762083386,0.900884136407325,0.341081651159487,0.58659552302064
168,1.70000327971517,2.59334015846252,-0.846144629822813,-1.44644610110437,1.70000327971517,-0.0736503253878584,-0.00963673844282628,0.0742781068522405,0.783574983428873,0.837815466434542,0.176912659353261,0.240228061623504,0.148503753791652,0.425358263399148,0.159482243416015,0.0358410501835417,NaN,NaN,NaN,NaN,1.76822611766951,-118.998443980142,1.5961760597426,stable,stable,1,0.528734172538254,0.214618450641066,0.212685176616075,0.898804173931586,0.333998331648155,0.578270652629081
169,2.4688172074159,3,-0.757739630885782,-2.31837982973887,2.4688172074159,0.00525955722050719,0.00412061887813764,0.00668149998837489,2.16084852826305,2.13480271091746,0.0233047678605197,0.0555272502618619,0.137814939527866,0.452722527873136,0.000193278950444458,0.00722282745545714,NaN,NaN,NaN,NaN,2.66549340284327,-107.193726307889,2.15111368101285,stable,stable,1,0.765489235965324,0.120741069995958,0.0751570264644033,0.954596070619036,0.338748915765393,0.787835925102042
170,1.71670738653261,2.52471828460693,-0.768572281119038,-1.50587345119026,1.71670738653261,-0.0693623483699102,0.00715892368424761,0.0697308078234124,0.911276481344045,0.766789822454174,0.176676180123564,0.240211911147899,0.137550425094899,0.406725960452244,0.15948955005219,0.0350391000351529,NaN,NaN,NaN,NaN,1.77840570795084,-115.675983280215,1.5,stable,stable,1,0.533806342007655,0.194586433501015,0.200377595490123,0.898477103265518,0.338866477735601,0.577758286290608
171,1.64985815765095,2.33500480651855,-0.795796518955754,-1.43172281827232,1.64985815765095,-0.034727226466271,0.00467786576733123,0.0350408716526407,0.798102858661654,0.789035267858325,0.176979252207418,0.240255149137079,0.131019791721428,0.430565538010612,0.159454800706857,0.03684233246542,NaN,NaN,NaN,NaN,1.68221562017466,-118.331726157389,1.62646945744292,stable,stable,1,0.512273649210357,0.160582155798194,0.180615305598682,0.899040002902205,0.341768981457143,0.580622395057754
172,2.41935440977414,3,-0.843217311338497,-2.23417018562114,2.41935440977414,0.0060520463354912,0.00328963386724038,0.00688832024715949,2.37805740649866,2.31842480058835,0.0356958849589936,0.0739242309011119,0.159350566417047,0.496548360503456,0.0216693966940882,0.00449237723497884,NaN,NaN,NaN,NaN,2.5789773418386,-109.450212225276,1.59351998973494,stable,stable,1,0.750160594502419,0.131908116512797,0.0904093046046388,0.945251125893391,0.329177526036868,0.563038104962024
173,1.55109090140077,2.31162714958191,-0.720023980473388,-1.35722750121184,1.55109090140077,-0.043619614555981,0.00624350301577271,0.0440641816436015,0.771154620744183,0.696005439449384,0.177090574534285,0.240201635515693,0.124050347974041,0.420393538622388,0.159479790935277,0.0350554597788772,NaN,NaN,NaN,NaN,1.60572032516396,-117.151648626796,2.22614755919478,stable,stable,1,0.481866343672589,0.179199089142084,0.191146800487187,0.899927026545622,0.344866512011538,0.583807476507555
174,2.25939368555006,3,-0.743549798542039,-2.10274291630928,2.25939368555006,-0.0161447119864817,0.0156886200499385,0.0225118751817297,1.61002976184277,1.28456333926961,0.0625939350964117,0.240343044024537,0.121799150543657,0.483083103970851,0.00196842472970932,0.0103332514602069,NaN,NaN,NaN,NaN,2.36078838964489,-107.709824257803,2.20936838362391,unstable,unstable,0,0.700937319608092,0.170763597867887,0.107090560141688,0.945959800943054,0.345867044202819,0.568069717545401
175,1.64246973618358,2.43402481079102,-0.810546204851667,-1.41079540610393,1.64246973618358,-0.0452611555907568,0.00808874338532991,0.045978255458036,0.687122240615145,0.598156197195207,0.175328518924236,0.240206623205287,0.122792073861983,0.403821931888216,0.159442001585737,0.0382279280592279,NaN,NaN,NaN,NaN,1.70036876942666,-118.357386427334,1.90236959494934,stable,stable,1,0.510238444177598,0.186529238620646,0.196681719737081,0.902237124240801,0.34542574495023,0.581150682739638
176,1.74936548610528,2.74309229850769,-0.884387909179885,-1.48004417678175,1.74936548610528,0.00455999138692004,0.00326910430163766,0.00561075435068857,1.54241479611766,1.77086474742585,0.0230047163749603,0.0502140639467926,0.113982533891629,0.435784462519871,0.000310715840059969,0.00473815177316388,NaN,NaN,NaN,NaN,1.79740384781532,-119.424856454763,2.09810989243117,stable,stable,1,0.542434218294154,0.224617171088168,0.136631362862967,0.962464731113249,0.349341096048165,0.812417143167429
177,1.96215702319632,2.82450246810913,-0.989766910447638,-1.67346959689452,1.96215702319632,-0.0542593648187301,0.00589029193621024,0.0545781477298912,0.943263494181409,0.906278028815346,0.176041109852159,0.240294958500724,0.158825722859206,0.403144419345393,0.156713949007367,0.0417637784741664,NaN,NaN,NaN,NaN,2.00389774569212,-119.82849383685,2.23983684378222,stable,stable,1,0.609542167304556,0.204033718855863,0.207257703852853,0.897447333107517,0.329410789840353,0.569891879126974
178,1.82165247323562,2.48376417160034,-0.973547645683174,-1.5248351187917,1.82165247323562,-0.0495781767026236,-0.00836532891316615,0.0502789651144693,0.981139256394067,0.988562499503624,0.176600794181785,0.240257171804596,0.161939131364514,0.452228813109938,0.156743925594355,0.0393704855459556,NaN,NaN,NaN,NaN,1.88108853169074,-121.75609313085,2.26638506750419,stable,stable,1,0.565885442555712,0.158192942403049,0.178896272571183,0.896223374827054,0.328027052726883,0.574349918954397
179,2.50190036495527,3,-0.654460884149199,-2.38492526868918,2.50190036495527,0.00832927804211715,0.00288876566303892,0.00881599907888196,1.84251929821928,1.77902775725011,0.0202897781981226,0.054895636192402,0.124137691989863,0.414679428224091,0.000390753005802523,0.00590195739235461,NaN,NaN,NaN,NaN,2.73243854491602,-104.018907315581,2.23533771715931,stable,stable,1,0.775794819781306,0.11368868438286,0.0705330449567875,0.961400098322251,0.34482769244895,0.787743972903411
180,1.78710950069687,2.59888458251953,-0.888812556214011,-1.53617562019808,1.78710950069687,-0.0442386758016614,0.00804806380286473,0.0449647836385263,1.00323360267194,1.02026845148222,0.177611135434475,0.240238174654615,0.159332945367499,0.391924964024352,0.156747022504297,0.0419791573215452,NaN,NaN,NaN,NaN,1.85620598441334,-119.444845846151,2.33507632516574,stable,stable,1,0.555053123500929,0.190892937077162,0.199466253698466,0.895295487571551,0.329185357614445,0.57542638064941
181,1.84240193918449,2.67232584953308,-0.898120447845701,-1.58825003980758,1.84240193918449,-0.0566569532243641,0.00962449650660777,0.0574686112732289,1.23273619876239,1.2260148757578,0.176957479956533,0.240245394888189,0.176407292417595,0.522044686489751,0.156680747976228,0.0397851178850821,NaN,NaN,NaN,NaN,1.8944468966032,-118.434379956689,1.9805768843343,stable,stable,1,0.572485535410233,0.197268791895192,0.202464478721125,0.892202501579075,0.321596758925513,0.572946611516084
182,2.4287428077062,3,-0.448231465819687,-2.35204290397198,2.4287428077062,0.00664948714648488,0.00683949304733756,0.00953909557850463,1.56821388993107,1.30144276362208,0.0330981686760967,0.049662976201535,0.111965605055324,0.422807277834357,0.026508269379151,0.00571631086425511,NaN,NaN,NaN,NaN,2.61222307005049,-99.3162222201901,1.57367972459423,stable,stable,1,0.753132849285753,0.130281702455498,0.0920291330267921,0.960903613384034,0.3502375088643,0.56503446658453
183,1.77711268712063,2.63708233833313,-0.943351578588662,-1.47756834112541,1.77711268712063,-0.0636076096480582,0.0025585933121775,0.0636590480990477,0.856887973827088,0.755315759986579,0.176932099264669,0.240239422262234,0.148954239363092,0.373919285171807,0.15950648804728,0.0354561978794853,NaN,NaN,NaN,NaN,1.87171872539055,-121.350351106356,1.55201866160774,stable,stable,1,0.552390310796374,0.205163997007637,0.206883333535308,0.898866635316273,0.333798115838626,0.575959799624287
184,2.44133430747759,3,-0.242909440849705,-2.39229361243994,2.44133430747759,-0.0092319791386243,0.00399686770299656,0.0100600392768245,1.08946443082593,0.728540111433087,0.0632716602948377,0.240505416261313,0.117601871662983,0.463369886198385,0.00191699045558398,0.00927375354456542,NaN,NaN,NaN,NaN,2.70378156394852,-95.0700514349474,2.07081911607478,unstable,unstable,0,0.757048369567845,0.127544121351627,0.0807507425852193,0.954079848449117,0.347732501483119,0.563592561587002
185,2.08669102759588,3,-1.20358365284255,-1.6730743427867,2.08669102759588,-0.0757172475484732,0.0118932675893871,0.0766456221207026,0.990282465213573,1.14900082061352,0.176469607771793,0.240327311848417,0.161184498767487,0.4568599702258,0.156725446456338,0.0412585558538237,NaN,NaN,NaN,NaN,2.15708888634091,-124.745911655981,1.80192891791743,stable,stable,1,0.648662616404207,0.219546216179722,0.216386594908,0.894956541725462,0.328362444992228,0.565084724474841
186,2.04736680905024,3,-1.12373442232187,-1.67863606674108,2.04736680905024,0.00751818152615402,0.00230377845162086,0.00786323397937237,1.50034778285159,1.53127807275609,0.0353261522533084,0.0575205868680805,0.112100391073054,0.452164450454217,0.0261211681061534,0.0032277205141681,NaN,NaN,NaN,NaN,2.10837557196529,-122.363616262261,1.5,stable,stable,1,0.634867186265094,0.215784060859914,0.142253561113734,0.958517006436428,0.350177603967532,0.577100523076692
187,2.04908680996927,2.77981209754944,-1.1025271682141,-1.71372328154736,2.04908680996927,-0.0508770762090089,-0.000137289583186687,0.0508772614436641,0.732374136669932,0.840036636491821,0.177278606668247,0.240284694792324,0.137784436240836,0.430329227461393,0.159540404474578,0.0341219775344533,NaN,NaN,NaN,NaN,2.09849345512064,-122.244984043751,2.20216770547665,stable,stable,1,0.636404047190827,0.173740687636876,0.187559250845981,0.899006040591034,0.338762472781851,0.56736523268939
188,2.01756445891192,2.80196332931519,-1.13773248418431,-1.64413388029199,2.01756445891192,-0.058279125721026,0.00254119925786213,0.0583345025561658,1.19195627497605,1.25082146040017,0.176706674585424,0.240311668751093,0.197946062297911,0.513023136992138,0.156666806081115,0.0418715565470604,NaN,NaN,NaN,NaN,2.08252249604559,-123.526280590972,2.11624209631726,stable,stable,1,0.626806120655673,0.187184404642698,0.197166354939793,0.892453409072189,0.312023972312039,0.567276312651458
189,2.49922871232033,3,-0.774727578729173,-2.34458533138244,2.49922871232033,0.00734483773576249,0.0100266770194751,0.0124290342914303,1.47836266032484,1.28886170053558,0.0335765808075243,0.0523350357755859,0.0993453360459103,0.427966852865837,0.0265099629374821,0.00498341525012309,NaN,NaN,NaN,NaN,2.71977714743149,-106.924123588306,1.58448542165582,stable,stable,1,0.775050911619435,0.114952196014689,0.0825656743588499,0.961469232475192,0.355846517312929,0.562777943620768
190,2.02763751980399,2.7518298625946,-1.10778529930055,-1.68298140683439,2.02763751980399,-0.053351337007054,0.00852706650355351,0.0540284741927465,1.15584866723387,1.10188247001311,0.176571122017961,0.240271900579808,0.155650699435812,0.49815050099626,0.156705664169379,0.04026536463059,NaN,NaN,NaN,NaN,2.06580628279313,-122.281189709167,1.79896455684678,stable,stable,1,0.629828295537067,0.172848497396559,0.187998011065753,0.893975122912651,0.330821911361861,0.567252550744895
191,2.01749958878472,2.75154042243958,-0.989388361400542,-1.74269465318307,2.01749958878472,-0.0494516444165491,-0.00295122405805279,0.0495396291764648,0.842364760104605,0.816782427703632,0.17736042585279,0.24029224022769,0.142413012253441,0.449986376467133,0.15959411678547,0.0346218332750701,NaN,NaN,NaN,NaN,2.07634549688122,-118.754548572983,2.07414542529806,stable,stable,1,0.626580797204047,0.174241452921362,0.188065347878708,0.898283630597969,0.33670532788736,0.568306864443604
192,2.48024843255679,3,-0.957018922918148,-2.2536924810435,2.48024843255679,0.00739845025195993,0.000633852510948403,0.00742555285055338,1.49258003193635,1.37770084453655,0.0212744078672851,0.0565609492273352,0.104541292493368,0.449487258522712,0.000125004391541727,0.00522695891095996,NaN,NaN,NaN,NaN,2.68099720733185,-111.612146549017,2.18169910911916,stable,stable,1,0.769050276992451,0.118305454030657,0.0729395422570045,0.966810589179785,0.953537203336281,0.914283567143987
193,2.06317984327978,2.9575092792511,-1.08646672125228,-1.72917081996152,2.06317984327978,-0.0666651461195332,0.00430908357282921,0.0668042656450644,1.25347343052211,1.27669671137405,0.176861662442605,0.240270026283795,0.170746506443236,0.490179607473717,0.156716310016876,0.0416721914495808,NaN,NaN,NaN,NaN,2.11900443077325,-120.570247299149,1.96528933804331,stable,stable,1,0.641144517615117,0.213471571795142,0.212888160581403,0.891689260520942,0.324112663803006,0.56553096952276
194,2.50805301258049,3,-1.00341504162203,-2.26283437635546,2.50805301258049,-0.0294182684258369,-0.00949561345383943,0.0309127998091297,1.74988390074327,1.54815945722044,0.0637964229061963,0.240268673112706,0.139476576931102,0.496347772850224,0.00189192437307621,0.00811601298868874,NaN,NaN,NaN,NaN,2.61715863552686,-112.220792726245,1.5848526297508,unstable,unstable,0,0.778217732562166,0.116355418801063,0.0736053840079927,0.94218859073433,0.338010410252844,0.559275591704624
195,2.02156438795077,2.75293445587158,-1.01586021837547,-1.73395340281895,2.02156438795077,-0.0459353642054344,0.00710338293890974,0.046481348236284,1.01870674032205,0.961131781052249,0.176159572924117,0.240257896718697,0.134004160933291,0.440637714774428,0.1595557900924,0.0346319116799478,NaN,NaN,NaN,NaN,2.08957514186263,-119.371133784789,2.13449933642632,stable,stable,1,0.627769525056918,0.173079845792169,0.187355014389884,0.896364339441429,0.34044259514076,0.567940384713679
196,1.95172788977623,2.76051354408264,-0.92213207134492,-1.69760941310575,1.95172788977623,0.00369871866464823,0.00214980768599898,0.004278106222033,1.7924062302835,1.67727233779554,0.0342303073751603,0.0606064849505037,0.125743740272266,0.450213000990771,0.0255842671162949,0.00457278196089639,NaN,NaN,NaN,NaN,1.98818975952798,-117.123132335998,1.57541880005098,stable,stable,1,0.605135468309145,0.182761091692982,0.122690270204772,0.955623086134656,0.344113893212326,0.579837439643585
197,1.87707382318925,2.67600917816162,-0.81905087117122,-1.66962394142322,1.87707382318925,-0.0620433350931493,-0.0136360006470573,0.0635241366972221,0.982412808003287,1.00893566033588,0.176432273526707,0.240253087412775,0.152191714558957,0.485282321383093,0.156757817510141,0.0440555682599833,NaN,NaN,NaN,NaN,1.96491164649544,-115.571452830696,2.39873108031242,stable,stable,1,0.583375115044936,0.191406546596608,0.200534275713577,0.896137553842553,0.332359237973797,0.572304061430531
198,1.81922302116342,2.69286823272705,-0.81005316449356,-1.60884120437183,1.81922302116342,-0.0610904716262266,-0.00498046879624056,0.0612931545357646,0.94285262669182,0.899092255785388,0.17661565138082,0.240242490242496,0.17975609693038,0.470437377009913,0.159527416413577,0.0362013573062522,NaN,NaN,NaN,NaN,1.88489007794024,-115.359098105949,1.80287452774686,stable,stable,1,0.565389310166495,0.207807250933373,0.20874955445116,0.897219750232983,0.320108401364276,0.57438558414276
199,2.4880154701074,3,-1.14004163276462,-2.17842797025389,2.4880154701074,0.00918999203557727,0.00631162714473747,0.0111486587008555,1.93868113988764,1.75111949382718,0.0306012014348244,0.0717039343931198,0.121252302049209,0.502241263707567,0.00814869907075126,0.00408254281896921,NaN,NaN,NaN,NaN,2.68563096804021,-116.007396076949,1.84671693306445,stable,stable,1,0.77154493110298,0.117240439987659,0.0754504690491203,0.955708108589114,0.346110087978129,0.787300611982612
200,1.92463463179919,2.72448134422302,-0.817450229240372,-1.7220915820551,1.92463463179919,-0.0551029410930956,0.00648436461670136,0.0554831605227342,1.06480365659308,0.955443500077162,0.176453304325244,0.240258868980957,0.163036296766441,0.474314445160523,0.1567282963642,0.0389771083381446,NaN,NaN,NaN,NaN,1.97177383483815,-114.893051128023,1.78320011783802,stable,stable,1,0.597931342936613,0.190137423057863,0.197912968382173,0.895899977320683,0.32753942365936,0.570863415755481
201,1.81275299455033,2.53601884841919,-0.769937501162326,-1.62097106524069,1.81275299455033,-0.0548968689299059,0.0158794205094286,0.0571473727657058,1.0617891549371,0.884112327327786,0.175173942338456,0.240254918878264,0.177200253085267,0.432054454827588,0.156758995782588,0.0393210032673535,NaN,NaN,NaN,NaN,1.87135485490829,-114.338554000358,1.76835613589608,stable,stable,1,0.563286867008468,0.173211835460873,0.187896312711459,0.897123802898691,0.321244331962104,0.574654019088518
202,2.34548770070076,3,-0.950888620526695,-2.11289506952936,2.34548770070076,0.00775106918095833,0.00518253392711363,0.00932404050579393,1.32418859356325,1.36276990357328,0.0329920480605288,0.0598762426520479,0.0952785051533489,0.45629647919987,0.0246135171813223,0.00506078903652068,NaN,NaN,NaN,NaN,2.45321237213052,-112.912057666969,1.58636706771272,stable,stable,1,0.727318748162371,0.148974674768391,0.102164432752882,0.96239215920652,0.357653997709623,0.792967302899352
203,1.80638740906099,2.51389980316162,-0.678910121190808,-1.6603766085635,1.80638740906099,-0.040125552563287,0.0027248156084823,0.0402179635064897,0.831698185325356,0.599320923933094,0.176110522797533,0.240208896634325,0.117159310598251,0.400900660915572,0.159489336055124,0.0345374992026518,NaN,NaN,NaN,NaN,1.87029192840855,-111.765439209843,1.91763158991253,stable,stable,1,0.560918515957392,0.166563581982165,0.183381389166278,0.900701017028489,0.347929195289666,0.575693747398427
204,2.60732308202065,3,-1.08848925469955,-2.33432893969465,2.60732308202065,-0.0274744122497523,-0.00474102521280638,0.0278804707373782,1.87145109930165,1.72452887498472,0.0625478346356296,0.240259368696259,0.134993138534249,0.439419159369608,0.00186431541665251,0.00779442936889665,NaN,NaN,NaN,NaN,2.83139096612359,-113.380852443651,2.01132192231506,unstable,unstable,0,0.808920699743607,0.0934637261805399,0.0597411582902733,0.940471954312792,0.340003049540334,0.555844884743344
205,1.90139882742953,2.56408929824829,-0.66864052429892,-1.76606119560948,1.90139882742953,-0.0515581287317374,0.00224018913070895,0.0516067736412552,0.965401623072938,0.791504762597563,0.177361194126754,0.240248572034375,0.156816187418918,0.440582901778656,0.159630607840122,0.0371013578618381,NaN,NaN,NaN,NaN,1.96890032989532,-109.962500805727,1.94177908733857,stable,stable,1,0.590637794554784,0.158566597768451,0.179578298337753,0.897515138477783,0.330303916702703,0.571928690341486
206,1.84632765094439,2.57252216339111,-0.68235946398466,-1.7024094904812,1.84632765094439,0.00199650708038092,0.00414315005929107,0.00459910131828108,2.32186187134115,2.14614096772216,0.0214513451282738,0.0643014565417248,0.14672150675664,0.47965332869974,0.000320433249619714,0.00734145357513459,NaN,NaN,NaN,NaN,1.88103759945373,-111.044045995161,2.23502982886929,stable,stable,1,0.572468884156855,0.164236933875531,0.101354194584794,0.954168590843223,0.334790441441493,0.808039155697721
207,1.78910658229776,2.50776362419128,-0.624833609151054,-1.66347591632878,1.78910658229776,-0.0361463556937734,0.00478245151595238,0.0364613613629993,0.94560052312957,0.860684624648345,0.176614849859612,0.240211580817227,0.151524190571821,0.405136913920177,0.156653403282323,0.0423811300165968,NaN,NaN,NaN,NaN,1.84674652348663,-110.007318336506,1.67110964682431,stable,stable,1,0.555473805610776,0.168382417342593,0.186064505203735,0.897500334623368,0.332655915301413,0.575841012444975
208,1.68446471009936,2.45081996917725,-0.568675407458264,-1.56831167665915,1.68446471009936,-0.0490054248975833,-0.003400308691977,0.0491232507942361,0.753363717523303,0.70708591157088,0.176471283195283,0.240196035998072,0.124471866594519,0.372167050556146,0.159514371258299,0.0362014960625001,NaN,NaN,NaN,NaN,1.72909108974606,-109.238188244666,1.70502998616173,stable,stable,1,0.523330269315999,0.181435862604802,0.192920974064044,0.900289397030904,0.344679170402436,0.579438649587507
209,2.50843809440383,3,-1.01425689513327,-2.25708921177953,2.50843809440383,-0.00486537907261995,-3.26563238912802e-05,0.00486548866567155,1.3001028765225,1.20191644627134,0.026612303118861,0.0727022255044097,0.118810678474093,0.485299588949974,0.0150212509267032,0.00618030613936126,NaN,NaN,NaN,NaN,2.74772911835878,-112.940250815686,1.78220347618965,stable,stable,1,0.777729337334053,0.111493435014511,0.0758195565823627,0.967035125190047,0.347195254011514,0.563445884658733
210,1.65832845937638,2.34680867195129,-0.60449659239697,-1.53287675661056,1.65832845937638,-0.0455082433464314,-0.00854521394540262,0.0463035732298353,0.806644791237347,0.692248143740198,0.17658418851456,0.240230407711869,0.125932956691804,0.406763977471284,0.159459606752542,0.0338117806054518,NaN,NaN,NaN,NaN,1.6861474659824,-110.854941629242,1.62005414414469,stable,stable,1,0.515162239115374,0.163397036254825,0.181204351034795,0.899930889825039,0.344029797025865,0.580283646012501
211,1.75889450352208,2.52772450447083,-0.596688870908297,-1.63901126458791,1.75889450352208,-0.0535107042123627,-0.00151049950287982,0.0535320191479003,0.81781143201628,0.72671137504053,0.176756008895918,0.240228165999087,0.127884225445919,0.432736324677565,0.159492123658568,0.0373569412279684,NaN,NaN,NaN,NaN,1.81769744353531,-109.22504436691,2.04196405314667,stable,stable,1,0.54650637653863,0.182800953723916,0.194150302791762,0.899486459210881,0.34316256646848,0.576822087182076
212,2.43396379788717,3,-0.997693659604143,-2.18454996995111,2.43396379788717,0.00632582252750523,0.00722679944184817,0.00960430428621405,1.58285508067938,1.56717747575866,0.0262685202746051,0.0526273183731352,0.109462914881179,0.395961120161779,0.000318792521798916,0.00301249097527767,NaN,NaN,NaN,NaN,2.59907613950057,-113.073671111716,1.99169669484266,stable,stable,1,0.754752877778367,0.129118934594527,0.0787084975856974,0.962115484062113,0.951349815608365,0.915045423852975
213,1.80098469322231,2.51955842971802,-0.6530740221692,-1.66676032643255,1.80098469322231,-0.0360762002980154,-0.00163709209455129,0.0361133257741317,0.83286753494579,0.722998815877423,0.176867855012747,0.240221322513207,0.120638706693237,0.395911115041473,0.159567959440476,0.0347169126597451,NaN,NaN,NaN,NaN,1.85818525653268,-110.61998311022,2.15976820649899,stable,stable,1,0.559147899166978,0.168299867103459,0.184523345223003,0.899341408308587,0.346382797025228,0.575737225515516
214,2.46023216691128,3,-0.852416388003489,-2.27486418840471,2.46023216691128,-0.0100755064690425,0.0197707533077908,0.0221900544606191,1.81841273937268,1.56994573708808,0.0625685309662152,0.240434115502223,0.128163606638935,0.473579727787696,0.00196358761449262,0.00730596663577085,NaN,NaN,NaN,NaN,2.69340139466995,-109.563755601497,2.34520187101498,unstable,unstable,0,0.763189739679911,0.125515939096075,0.0788389842043667,0.942092917916129,0.343038397049362,0.560968066309742
215,1.7328182483206,2.47012162208557,-0.498656413010691,-1.64108579876703,1.7328182483206,-0.0492297074695547,-0.00619094828323643,0.0496174559825838,1.1919833217316,1.09717714633609,0.176894274941659,0.242353967344479,0.152861540420618,0.474899651481215,0.156656746326972,0.0421198841365639,NaN,NaN,NaN,NaN,1.7939889891403,-105.721237886439,2.4122575010624,stable,stable,1,0.538331397618979,0.174989792693926,0.189935417710326,0.893566601708638,0.332061537590837,0.576850091706181
216,1.76366948843002,2.50769233703613,-0.599180038945171,-1.6467020994064,1.76366948843002,0.00172883250313864,0.00241323852963722,0.00296859933720168,1.70488935221235,1.48148167634168,0.0333364040508605,0.077730278281095,0.108023105356731,0.473733428103307,0.0183610916396081,0.00509286804251793,NaN,NaN,NaN,NaN,1.80361410443525,-108.940177448437,1.65501258534853,stable,stable,1,0.546806808731175,0.167949384148195,0.110782067677537,0.958296025607359,0.351989730952564,0.586373194978727
217,1.56664746188793,2.29498076438904,-0.475319308175893,-1.47746272981459,1.56664746188793,-0.0450689643213831,-0.00955504423864647,0.0460707110364557,0.902958262924456,0.864498954775541,0.176583874075086,0.240224646313398,0.131610661299022,0.451994704460522,0.159470956261256,0.0371061982446301,NaN,NaN,NaN,NaN,1.62899099229363,-106.989296335634,2.28914659482687,stable,stable,1,0.486735696442776,0.172321290086099,0.187761917610265,0.8978208991091,0.34150637275599,0.582950854911869
218,1.69040363783739,2.48685765266418,-0.512643559843938,-1.58839751554365,1.69040363783739,-0.0606706165774204,-0.0181585357181306,0.0633297413172593,1.04369762969354,0.911024566508307,0.177360912043507,0.240220952172876,0.121708524867636,0.455372858162882,0.159503329978202,0.0376611808490761,NaN,NaN,NaN,NaN,1.72962448442775,-106.464764852446,1.5,stable,stable,1,0.52550282169366,0.19081260591086,0.199072907279926,0.895961012436661,0.345907322281051,0.578347763162732
219,2.39271398345629,3,-0.334758548037902,-2.33920229292342,2.39271398345629,0.00673971052086394,0.00600498221954697,0.00902682166446858,1.94682677736317,1.92149774733652,0.0162639432221665,0.0672209344905741,0.126447469472597,0.477870779745448,0.000199080365399778,0.00472521589294924,NaN,NaN,NaN,NaN,2.54483518005748,-96.6609125662873,2.40871537010701,stable,stable,1,0.741951960710289,0.138294271027486,0.0847833031036006,0.961474049980562,0.343801124678846,0.791299933655626
220,1.60853371733711,2.4277777671814,-0.465214217711106,-1.51619639905163,1.60853371733711,-0.0557606929098066,-0.00541623299048153,0.0560231242755073,0.770595668302858,0.731503237849546,0.17695523530071,0.240203016437562,0.134190475980615,0.408498128748889,0.159497881574581,0.0334607816681869,NaN,NaN,NaN,NaN,1.6727625065453,-105.886155350416,2.14160390602773,stable,stable,1,0.499952658607599,0.194600817332141,0.199815994736015,0.899720176658447,0.34035978845306,0.58170027601049
221,1.70335684747112,2.41980695724487,-0.529307315440081,-1.60145127783269,1.70335684747112,-0.0480952825149027,0.00649593417533679,0.0485319828669571,0.929234329910009,0.7809343683321,0.176391499952717,0.240215279417369,0.157547462381382,0.397598429197826,0.159501346551837,0.0357581234813524,NaN,NaN,NaN,NaN,1.74729559054114,-107.093034415415,1.60741192832429,stable,stable,1,0.52917303564961,0.17009880489137,0.185951724284413,0.898367210251739,0.329978905608275,0.578546674294778
222,2.37186343431473,3,-0.377936770725892,-2.3126237908199,2.37186343431473,0.0066936623852132,0.00639156070576159,0.00925511557910832,1.45554431052861,1.18535068045717,0.0246491145465705,0.0487805490386913,0.09743813509517,0.398032867442497,0.000213270770999601,0.00279345688683337,NaN,NaN,NaN,NaN,2.52131395840868,-97.8254488194684,2.06614678025556,stable,stable,1,0.735493617334411,0.14302749846869,0.0869270885948499,0.966925553511827,0.356694162179924,0.792791306888911
223,1.68030020533776,2.6165816783905,-0.46638919286204,-1.59064027600249,1.68030020533776,-0.0617318311236091,-0.00959303814483622,0.0624727569002848,1.1979194093483,1.02623043738375,0.176389303282006,0.240231637127223,0.153387349489386,0.426387380940459,0.156655507003474,0.0432713578915632,NaN,NaN,NaN,NaN,1.74431436087838,-105.028659224931,2.230328632466,stable,stable,1,0.522350761315712,0.22211667020192,0.218629711133769,0.894329885277531,0.331827844671384,0.578446452872397
224,2.30719982285097,3,-0.267898675634011,-2.26129657863687,2.30719982285097,-0.0237536849430484,-0.0116612460218649,0.026461712097974,1.6348143229666,1.20699074037037,0.0624938783185005,0.240410453846099,0.114039784751798,0.409945188664751,0.0018944710783957,0.00770022936554184,NaN,NaN,NaN,NaN,2.31623984576526,-95.1047427981777,1.98525019461017,unstable,unstable,0,0.715849385032755,0.160731353743159,0.100080882797501,0.946424592485959,0.349315651221423,0.566516614668523
225,1.63758735389126,2.58880877494812,-0.500751757348349,-1.53558350451562,1.63758735389126,-0.0563994896481701,-0.0024103058496841,0.0564509699373099,0.908869418654921,0.865341427820865,0.176070884474053,0.240221812898185,0.146259475256767,0.441427777113253,0.156643184780596,0.0424681486928296,NaN,NaN,NaN,NaN,1.70142643628539,-106.579492306313,1.96425334695973,stable,stable,1,0.508969269004827,0.224374164226301,0.21968665493263,0.898024329683521,0.33499578877477,0.580494168477159
226,1.71405182600021,2.51539850234985,-0.437401094514248,-1.64547250914016,1.71405182600021,0.0048182221954018,0.00505928603561808,0.00698653278203592,2.14141623475997,1.91112052812639,0.0169190338795681,0.0748824134698358,0.13310956340175,0.479009757089932,0.00024243182526728,0.0050696243972212,NaN,NaN,NaN,NaN,1.75332894250072,-104.127752844779,2.38318359262282,stable,stable,1,0.531519085158314,0.181583866522042,0.11090156717193,0.959699122780395,0.340840194043667,0.813125919748367
227,1.78006120847196,2.67275643348694,-0.566449454420936,-1.67046717574172,1.78006120847196,-0.0497508182684124,-0.00780327741086616,0.0503590613169818,0.898326354272062,0.608076839555887,0.176067685119056,0.240223164089643,0.127439696548267,0.350674045945337,0.159614348465945,0.038097571962374,NaN,NaN,NaN,NaN,1.84897228717497,-107.576449356283,1.8716374205465,stable,stable,1,0.552994019390371,0.21008892020315,0.210846725082971,0.90013013234611,0.343360134867437,0.57628624700353
228,1.70498334145059,2.47654891014099,-0.486270435618009,-1.62284923879341,1.70498334145059,-0.0410321717146757,-0.0183004493051887,0.0449282267666377,1.17935731682213,1.04003639453369,0.177634936753843,0.240212967959517,0.149534506138954,0.487919769054752,0.156664088519756,0.0441002568007522,NaN,NaN,NaN,NaN,1.764863382664,-105.90015806783,2.02171670637365,stable,stable,1,0.529593161140906,0.181839094529223,0.194768397522547,0.893744438176711,0.333540219493798,0.577863463160946
229,2.45951725522677,3,-0.214706096750745,-2.42077413725705,2.45951725522677,0.00538508790112105,0.00931908306393416,0.0107631073977409,1.89435780355609,1.53684692200115,0.0188959055923424,0.054605802925343,0.115985821981948,0.432442398504546,0.000169431388055851,0.00553897787970547,NaN,NaN,NaN,NaN,2.6625563393492,-93.501421209398,2.27648552059033,stable,stable,1,0.762701488292913,0.123581853930229,0.0762385889717117,0.963592581503022,0.948450745785801,0.914416222051123
230,1.73015208187557,2.68109965324402,-0.367612214848217,-1.66388668348304,1.73015208187557,-0.0616053972254807,-0.0139080694458263,0.0631558339587025,1.04860252243231,0.741578879821439,0.177607021815818,0.240250597618141,0.162649130132495,0.3685546803157,0.159439966866258,0.0349781434640671,NaN,NaN,NaN,NaN,1.7843493201712,-101.482609162714,2.03172693211005,stable,stable,1,0.537820781507131,0.225541773116995,0.218906596262336,0.897130778074383,0.327711497718891,0.577234446955924
231,1.6156948407491,2.27850031852722,-0.38086449211782,-1.56078276746211,1.6156948407491,-0.0370712009491482,-0.0137805613852387,0.039549687886309,0.916840159159374,0.777584381915212,0.177481182483721,0.240187856667991,0.146391916350726,0.436907785356409,0.159469110945536,0.0364573715807191,NaN,NaN,NaN,NaN,1.69055677769575,-102.692058050381,1.81627332032396,stable,stable,1,0.501788226682903,0.156382008612566,0.17796159161713,0.897946073078267,0.334936926066344,0.581489709099384
232,2.50947547594706,3,-0.366847975808685,-2.45106732437166,2.50947547594706,0.00609749986457018,0.00884277934233107,0.0107412406683581,1.65067650756394,1.61054465255812,0.0281593548158035,0.0578534963908756,0.112473362354582,0.43166918037942,0.00617030654560165,0.006219919473782,NaN,NaN,NaN,NaN,2.73252747036013,-97.0376062957009,1.91144063450416,stable,stable,1,0.778188026492518,0.112337245367777,0.0724064945849349,0.960296442048282,0.350011838953519,0.787298541627266
233,1.8126515709624,2.7312650680542,-0.501676599103621,-1.71776854451922,1.8126515709624,-0.0589375654087619,-0.00152357237950733,0.0589572547623079,1.09042397034739,0.85845613140968,0.176455979131087,0.240260421754818,0.137199048130322,0.445268777140852,0.156669376272083,0.0402469456860613,NaN,NaN,NaN,NaN,1.88176089111147,-104.830618370753,1.88817295075136,stable,stable,1,0.563297656276131,0.217496866885411,0.2147642070067,0.896459381063508,0.339022645275412,0.574525979144908
234,2.5811141624938,3,-0.427058067888477,-2.50841936722332,2.5811141624938,-0.0160142573312584,0.0040187228893836,0.0165108016623488,1.52563554695135,1.16620167791983,0.0631258564349538,0.240280521478121,0.130273355812469,0.491136732126766,0.00186768159758323,0.00948529280996664,NaN,NaN,NaN,NaN,2.62292276633497,-97.514637252602,1.86999454769515,unstable,unstable,0,0.800530642411865,0.0972762937436598,0.0626450543416753,0.947286922158535,0.342100730750014,0.557917889013641
235,1.87343146444178,2.7554395198822,-0.447503972542,-1.80113808886488,1.87343146444178,-0.0607309305540813,-0.0167150515265199,0.0629891964824037,0.832862136561781,0.722652785576846,0.176811826696068,0.240242050828362,0.139624001253234,0.372920781286704,0.159541030547319,0.0376342663568767,NaN,NaN,NaN,NaN,1.89578161223685,-102.881558167136,2.0499651875654,stable,stable,1,0.582233501894874,0.209999831829202,0.210592211551356,0.899372183692305,0.337944888331896,0.572916994021046
236,1.76238831321398,2.3981614112854,-0.438235261509177,-1.69489543073613,1.76238831321398,0.00369339972507141,0.00560299866707115,0.00671079694167233,1.40736693177838,1.38559976338185,0.0273825001613868,0.0505065144023716,0.10038933246388,0.419293670600852,0.00346372921331804,0.00528119605306891,NaN,NaN,NaN,NaN,1.78835112320171,-103.489545949386,1.95571996667559,stable,stable,1,0.546496962358307,0.144279259838709,0.090027426037533,0.96436401160019,0.955382518904942,0.937259542614095
237,1.79421055641304,2.46393394470215,-0.398934647043659,-1.73676243770865,1.79421055641304,-0.0418804601912433,0.00371920225247728,0.042045278108548,0.864169311295105,0.525734864819278,0.176286251845724,0.240233599084784,0.112748970639699,0.381984412164786,0.159621172803579,0.0347212610667714,NaN,NaN,NaN,NaN,1.84557375477217,-102.044516136708,2.07130434148378,stable,stable,1,0.557186328977242,0.158396063351616,0.178606294594417,0.900936198407668,0.349889346382356,0.576092794310827
238,1.8466778507038,2.56042766571045,-0.513411119514088,-1.75639326778832,1.8466778507038,-0.0465977919725976,-0.0116111981198457,0.0480226419358597,1.2394339732598,1.10295217489319,0.177407933329759,0.24120720415451,0.150283202259497,0.470291346794782,0.156664864632172,0.0395781399390236,NaN,NaN,NaN,NaN,1.90533281829438,-104.984309855274,2.35660279515322,stable,stable,1,0.573590662030016,0.169397859398069,0.185659595251169,0.89289157074249,0.333207465662446,0.573076309229622
239,2.54064409097036,3,-1.22664739950457,-2.18855708176565,2.54064409097036,0.006971153761545,0.00361269348309846,0.00785165835794739,2.30076111737189,1.9018177403611,0.0332435327216425,0.057962543173676,0.14013696364216,0.409322967896641,0.0132488097966729,0.00631928442555151,NaN,NaN,NaN,NaN,2.80149526965303,-118.153335216797,1.72208993989771,stable,stable,1,0.787782873562496,0.104794550230627,0.0710630116572998,0.950357971185562,0.337716905047929,0.559845358700034
240,1.98220974247472,2.7698016166687,-0.990324595155868,-1.7028039615672,1.98220974247472,-0.0511832042384512,-0.0123387117948166,0.0526494463871231,0.987725361445145,1.09795093561944,0.176575094098467,0.240264593869747,0.159899902338789,0.489837325665182,0.156652931247417,0.0419552137449344,NaN,NaN,NaN,NaN,2.07118132763553,-118.983811765613,2.19189829980284,stable,stable,1,0.615713507249529,0.186860570197952,0.196996308479418,0.895324996330973,0.328933376738316,0.568955567507443
241,2.05215402606393,2.86216139793396,-0.664326811180045,-1.92009997636356,2.05215402606393,-0.0538629816630365,-0.00458985114399411,0.054058186495263,0.991875010895327,0.778911947467079,0.176418661479612,0.240293559116748,0.158215943535394,0.433436642241749,0.156752046214048,0.0391566333213881,NaN,NaN,NaN,NaN,2.13528443357666,-107.799516179167,2.09534174575606,stable,stable,1,0.637429105764708,0.192162326194888,0.199203747565297,0.897877343158775,0.329681802873158,0.567040577363071
242,2.58670409401258,3,-0.962545447438109,-2.36832667199911,2.58670409401258,0.00767150485798022,0.00288992157320924,0.00819778222968349,1.79118272568577,1.77010794898142,0.0279964380896848,0.0489080562960683,0.120182566965935,0.443199797490084,0.00365849090193994,0.0102398523506334,NaN,NaN,NaN,NaN,2.89532519886852,-110.529278296591,1.93960619879263,stable,stable,1,0.802069550729259,0.0944945055892785,0.0620462819829425,0.958020211368487,0.346585525792918,0.784491687460845
243,1.92325123232238,2.76049375534058,-0.518521016850169,-1.83902476223097,1.92325123232238,-0.0464977670630486,-0.0158270724231753,0.0491175993238469,1.02388647246051,0.853589191470536,0.177660864728621,0.240258551709506,0.15211636410509,0.405942832495399,0.156700392983573,0.0401023343068055,NaN,NaN,NaN,NaN,1.98376410935557,-105.253473220487,2.47518876724864,stable,stable,1,0.597353959337495,0.197384460888466,0.202657962657546,0.896417973133374,0.332392727064405,0.571097472931361
244,2.66727272767107,3,-1.17347676937461,-2.35742714405802,2.66727272767107,-0.0245618423228439,-0.00508666737573595,0.025083027793383,1.44780202014379,1.22825501040792,0.0640834063842308,0.240383715325854,0.10278324995538,0.432399010217637,0.00185396921168888,0.0109015255652362,NaN,NaN,NaN,NaN,3,-115.060047740346,1.73288306286347,unstable,unstable,0,0.827439816226543,0.0794621913694633,0.0524654922526155,0.946932134424978,0.354318555575387,0.554914503528053
245,1.97753371267903,2.6700119972229,-0.496024562502425,-1.90097019350982,1.97753371267903,-0.0498287773680828,-0.0191358737336513,0.0533768556356424,1.0779036450767,0.775131929640101,0.176351628149532,0.240256704068992,0.159604383745896,0.44685856214514,0.156706206164973,0.0394127690209687,NaN,NaN,NaN,NaN,2.02680193318135,-103.825614484035,2.23489480845905,stable,stable,1,0.61428091089533,0.165593370888906,0.183335141280957,0.897264620695316,0.329064718335157,0.569385752468605
246,1.86078376332919,2.74761867523193,-0.484111084442966,-1.77838289818291,1.86078376332919,0.00211334551890934,0.000690451307667139,0.00222327512704871,1.72822794806197,1.59909574084561,0.0289087123220453,0.0567786530970052,0.112270853965595,0.458820816212591,0.00653248746501262,0.00493896402013643,NaN,NaN,NaN,NaN,1.91020204552772,-104.030801725607,1.91199945745308,stable,stable,1,0.576894843051679,0.199945455618077,0.124666588049487,0.959402386283275,0.950101842681958,0.933395978319569
247,1.71189478870963,2.57678484916687,-0.435456563576876,-1.63619444497654,1.71189478870963,-0.061152404885343,-0.0176835930297028,0.0636578831387055,0.788753595065436,0.600801368204338,0.176873379243217,0.240213794873436,0.128237921138102,0.366968768452694,0.159465275546363,0.0367048236138381,NaN,NaN,NaN,NaN,1.78476089748518,-104.078838145178,1.51732503324051,stable,stable,1,0.532172735106554,0.206270875511642,0.207983189692219,0.900645378524129,0.343005368383066,0.578346213190629
248,1.86681223888786,2.60489416122437,-0.509250193258918,-1.78373589581601,1.86681223888786,-0.0472276324248748,-0.019342484280909,0.0510350954012657,1.15660263349551,1.02732674504566,0.177733689049039,0.240237261951965,0.139961642497627,0.464988363154089,0.156706366759775,0.04098780693937,NaN,NaN,NaN,NaN,1.90922031505331,-104.621382567611,1.81505947813978,stable,stable,1,0.579902612947934,0.175424866682611,0.189806851193884,0.893973710358371,0.33779482555661,0.572531544620378
