scenario_id,mean_wind_speed,max_wind_speed,wind_velocity_x,wind_velocity_y,wind_velocity,wind_acceleration_x,wind_acceleration_y,wind_acceleration,wind_body_force_x,wind_body_force_y,wind_body_force,mean_wind_body_risk,mean_wind_gust_risk,mean_wind_risk_raw,min_thrust_margin_n,mean_abs_roll_deg,mean_abs_pitch_deg,mean_abs_vz,max_abs_vz,mean_tag_error,max_tag_error,stability_std_z,stability_std_vz,mean_imu_ang_vel,max_imu_ang_vel,mean_imu_lin_acc,max_imu_lin_acc,wind_speed_cmd,wind_dir_cmd,hover_height_cmd,gt_safe_to_land,label,success,onto_wind_condition,onto_gust,onto_temporal_pattern,onto_drone_state,onto_tag_observation
1,2.02496695437399,2.73641061782837,-1.24919610167767,-1.57655177302987,2.02496695437399,-0.0522885238577587,0.0148535879858123,0.0543573252034688,-0.0842611031678973,-0.130694787576289,0.159104683959902,0.0102628161616518,0.124450875124673,0.127074562760015,15.45193582708,1.00079558405636,0.923670988358885,0.176163202314846,0.240281092471198,0.146205888570864,0.381585705168255,0.156704538852538,0.0417784311807666,NaN,NaN,NaN,NaN,2.0716688985117,-127.374480982322,2.31472368639318,stable,stable,1,0.565406100385067,0.170040333897872,0.186862818843968,0.896797590059315,0.335019605079616
2,2.29997005184491,3,-1.3889170052801,-1.79462919408517,2.29997005184491,0.00994242900543554,0.00589004646721395,0.0115561473646742,-0.109644529588214,-0.17457231542012,0.215451582919288,0.0139074128711609,0.229334608301768,0.231040428849606,15.4218971907398,1.70358947886377,1.77872972415416,0.0210452050247548,0.0813850999972198,0.122608739771007,0.457413853793043,0.000331516104674559,0.00698771981674889,NaN,NaN,NaN,NaN,2.42882567996652,-126.095851442396,2.21228503754817,stable,stable,1,0.659533432928565,0.159625365351751,0.0984635487262895,0.962116318035339,0.345507226768441
3,1.78873354966949,2.64668560028076,-1.09636757154625,-1.39105696264772,1.78873354966949,-0.0541014359592999,0.0181964638980535,0.0570795643926212,-0.0665078814028662,-0.104323215127331,0.128007975062665,0.00825743933397364,0.153376773315233,0.155516679103508,15.4422581418121,0.882824476891175,1.04800083105085,0.177095434980761,0.240250551740863,0.183872060459719,0.444955865763984,0.159419440963013,0.0358902507514419,NaN,NaN,NaN,NaN,1.87319628751653,-127.297520073929,1.8908262203987,stable,stable,1,0.508098949065898,0.203503798192851,0.206006364061412,0.896281512232932,0.318279084240125
4,2.42742439783087,3,-0.701371605216583,-2.28777289150575,2.42742439783087,-0.0292607894800769,-0.0154020766886605,0.033066868120836,-0.0323654926337205,-0.271567753635064,0.275323258263995,0.0177635922868955,0.236370787264843,0.237952922473931,15.4500338226035,1.34054971194141,1.01746815353998,0.0627572738606264,0.240434189103241,0.102090841470128,0.436936910787302,0.00185036340263001,0.0073768021303422,NaN,NaN,NaN,NaN,2.46779887999601,-105.553838771394,1.74899472413455,unstable,unstable,0,0.694903757249685,0.134891769643541,0.0844399190225694,0.950094079840904,0.354626292679943
5,1.7939487912067,2.88138365745544,-1.03611333312159,-1.4349086816286,1.7939487912067,-0.0536483878484187,0.015367863680572,0.0558060996024539,-0.0622669546367343,-0.113757071612494,0.135247915273063,0.00872458799248896,0.18655864071868,0.188670644876173,15.4186275459526,1.04739976264715,1.01355567903162,0.178417348842239,0.240276872451392,0.125842302183549,0.468955359409364,0.159541498663587,0.0370780344918565,NaN,NaN,NaN,NaN,1.88084050141636,-125.058018224367,2.30476214805669,stable,stable,1,0.516120473297021,0.254903963166417,0.237332632272625,0.894598104251405,0.344070087918423
6,1.87630838473638,2.70568609237671,-1.03282683826659,-1.55280265465052,1.87630838473638,0.00364795581666203,0.0031200803913643,0.00480025866895674,-0.0579487238834639,-0.126558206606617,0.141449191289968,0.00912893530371118,0.125404409258568,0.126521089663727,15.4315934037673,1.50407130828492,1.57800326502987,0.0319216664273186,0.0519457054981807,0.107666331764768,0.444625998539611,0.0156469357733691,0.00769394367154871,NaN,NaN,NaN,NaN,1.9161886291726,-122.783489357006,1.75878658304431,stable,stable,1,0.525653120529113,0.187490031641716,0.122246010360828,0.959822866567439,0.352148296993436
7,1.91213914326259,2.75158143043518,-1.06635079297983,-1.5715300733515,1.91213914326259,-0.0412556323797141,0.0125845628588885,0.0431323361922286,-0.0621912916408058,-0.131001515763023,0.147779049561783,0.00953359313022022,0.131580030005495,0.134009082574991,15.3816504430505,1.0361579176378,1.04862727391535,0.176870817135345,0.240255873392363,0.143601606632267,0.497186935059204,0.159320812508961,0.0358318048342055,NaN,NaN,NaN,NaN,1.96867067391655,-123.586570068552,2.23858552930632,stable,stable,1,0.536705588051689,0.196782109582408,0.201908262965866,0.895184136355838,0.336177063718993
8,1.91691197911087,2.70694518089294,-1.10427574109919,-1.54528001099505,1.91691197911087,-0.0445647908967114,0.0168538009439297,0.0476452641290319,-0.0673150454037208,-0.128153683844121,0.148801098796923,0.00959844887297467,0.154262690415354,0.156599025329639,15.3945227116156,0.902452697290079,1.06859055586307,0.177204223323191,0.240281331668686,0.128928940769347,0.509627937356225,0.159429176701135,0.0352852359417203,NaN,NaN,NaN,NaN,1.96461919299708,-125.030810267647,1.51551043028508,stable,stable,1,0.542496332828827,0.186492435491288,0.195583868049843,0.895911119920773,0.342698248546957
9,2.6218314576149,3,-0.826072677788999,-2.45607829805684,2.6218314576149,0.00788348413947031,0.00764159554353326,0.0109792214946337,-0.0440199257995271,-0.313981834928799,0.319244234620797,0.0206178375701566,0.192803858600825,0.195281038788429,15.3625646203609,2.13186682503129,1.99369028314343,0.0173136947223058,0.078528634856278,0.128775552214898,0.509964844898833,0.000251045285993027,0.00410314258024418,NaN,NaN,NaN,NaN,2.98365709536118,-106.900241715489,2.36065358469464,stable,stable,1,0.738211263121659,0.087100779310664,0.0538640951164235,0.958928061074617,0.342766421237823
10,1.88751447930628,2.63631367683411,-1.13309119342027,-1.48973873585711,1.88751447930628,-0.0535908562967756,0.00542119479345819,0.0538643595674382,-0.070520946974709,-0.118875440354455,0.142074862458951,0.00916249793762815,0.148645841673831,0.150842628522845,15.4241154599819,0.739027672064635,0.867718385775635,0.175786213584974,0.240247705579006,0.136930315832336,0.46690820041602,0.159212383182389,0.038095869935791,NaN,NaN,NaN,NaN,1.92399487038037,-126.353098118705,1.82143852852687,stable,stable,1,0.533505720186244,0.178354952031125,0.191627074023863,0.899482459895911,0.339142081852295
11,1.88204715365455,2.52852272987366,-1.16629015797659,-1.46214547473703,1.88204715365455,-0.0464425021844056,0.00266391324741576,0.0465188396559746,-0.0731829056726824,-0.11370328926166,0.138183767212361,0.00891324800917332,0.128794246588303,0.131024795957456,15.4611376735789,0.8517493300648,1.05903291517615,0.176091763357826,0.240214317990929,0.180248538193043,0.467645968756119,0.15925454009811,0.0352746486419206,NaN,NaN,NaN,NaN,1.90759543141243,-127.844704273722,1.51780344425691,stable,stable,1,0.528084200166038,0.153985458586227,0.175998215711595,0.896940829251337,0.31988953858087
12,2.62381944775581,3,-0.788785730478038,-2.46746945865168,2.62381944775581,0.00718177768689692,0.00157087781279787,0.0073515704340468,-0.0417230645103663,-0.317095749399117,0.321978603261754,0.0207859123597555,0.195218345809639,0.197740385552343,15.381091364071,1.81813360490177,1.68658832088052,0.0249266817962066,0.0626186305099083,0.116624142918213,0.431192848603863,0.000595879563200861,0.00672432456275551,NaN,NaN,NaN,NaN,3,-106.299635778902,2.0619073370743,stable,stable,1,0.739233263178686,0.0859884121678506,0.054303091594044,0.959999558256464,0.348167047591905
13,1.97351895465332,2.9431414604187,-1.04707096971878,-1.65079100028174,1.97351895465332,-0.055836609590384,0.0149037269313169,0.0577914184545787,-0.0615828294170197,-0.145706681441431,0.161829911916236,0.0104384121312102,0.163469359919844,0.16606195521829,15.4042176869103,1.00481471904564,0.990590007438994,0.177013200662897,0.2402715252427,0.159514369423044,0.489322273999466,0.159344630687967,0.0367318610778158,NaN,NaN,NaN,NaN,2.02726066309477,-121.319262228342,1.54602423232662,stable,stable,1,0.559484112284543,0.228760157180551,0.221432970561582,0.895815219674744,0.329104724700869
14,2.65744976732466,3,-0.727723806099194,-2.51711156345922,2.65744976732466,-0.0262227522130964,-0.00593654480447623,0.0268863403579774,-0.0345165577271039,-0.325727892921868,0.329289150147501,0.0212661971706472,0.205655236834535,0.207713469269579,15.3099298693735,1.90733103932856,1.64556641982517,0.0636349022682627,0.240354215657349,0.143065699125844,0.495991925671157,0.00184964854733482,0.00997400650866367,NaN,NaN,NaN,NaN,2.96211416560549,-104.652706865072,1.62252532510143,unstable,unstable,0,0.750195965140492,0.0820029647509141,0.0536507563292821,0.940266925972518,0.336415244832958
15,1.73141268443088,2.64420247077942,-0.93409218364121,-1.42783333557009,1.73141268443088,-0.0690803538277592,0.00158990243168543,0.0690986474159276,-0.0518500621627041,-0.112445747077523,0.128535882402821,0.00828992580628393,0.173355820811861,0.175276959573739,15.458655255687,0.826036778482715,0.861710179238369,0.176347039406314,0.240221447155946,0.151445492405169,0.429347577607437,0.159529955372568,0.0365432919136209,NaN,NaN,NaN,NaN,1.78867162897179,-121.8764556945,2.1351416586802,stable,stable,1,0.496765441096316,0.218045787288008,0.215018144547384,0.89856561134332,0.332690892264369
16,1.76316416422526,2.48840308189392,-1.00153898176778,-1.42974673623005,1.76316416422526,0.00414465438933988,0.000172662918751169,0.0041482493284018,-0.0556569310887384,-0.108585129417046,0.125478232298334,0.00809753530029532,0.142523356236737,0.14351478401757,15.4425409357878,1.47432424953838,1.53170794755366,0.0331754764996416,0.0520413749430654,0.109107078872316,0.436453202502672,0.022434761293601,0.00569300849408772,NaN,NaN,NaN,NaN,1.79698325918466,-123.928221238646,1.64679066400451,stable,stable,1,0.498880067263583,0.163939268852322,0.110404751237713,0.959793437344456,0.351507964945637
17,1.86735167552014,2.61300277709961,-1.01269405588774,-1.55291298336841,1.86735167552014,-0.0392135041900082,-0.00683541279922134,0.0398047959295805,-0.0562756517045989,-0.127258172607901,0.141823072831889,0.00914696695271267,0.125786712324651,0.128066255452653,15.4604036903678,0.820823294042105,0.892222581300878,0.176954955828264,0.240229439977805,0.13118984971934,0.411040925197845,0.159526582164405,0.0371660386189624,NaN,NaN,NaN,NaN,1.90606506718967,-122.683382350962,1.71785141065534,stable,stable,1,0.523573697895901,0.175069043775804,0.189457052583831,0.898062875922459,0.341693400124738
18,1.82702023642404,2.58333158493042,-1.04840061587775,-1.48213795390634,1.82702023642404,-0.0426510292279165,0.0100228263362037,0.0438128673104864,-0.0599501032999642,-0.116427864673578,0.133442624891381,0.00861139237241352,0.126361105870434,0.128491364293575,15.3250217737223,1.15311274143031,1.30959013776215,0.176645351916589,0.240218380188831,0.161284287651221,0.484405028023245,0.156663621372983,0.0401670599008692,NaN,NaN,NaN,NaN,1.87952489310621,-124.36494621675,2.42106486168501,stable,stable,1,0.512903669238458,0.178202412420859,0.191155927218601,0.892327515705193,0.328318094377235
19,2.62447650353114,3,-0.781902393887093,-2.47092781515564,2.62447650353114,0.00831833049749075,0.00365539077935466,0.00908606097356142,-0.0409590660986866,-0.317794327570947,0.32244445247029,0.0208092901982551,0.196202498739244,0.198654721440582,15.4525351398819,1.58590821328103,1.45450431661875,0.0317461312365352,0.0488000761857066,0.105522178986916,0.421837130026729,0.0160305943270033,0.00708115531877686,NaN,NaN,NaN,NaN,3,-106.031594526481,1.72217868164847,stable,stable,1,0.739591345229753,0.0861585645506468,0.0613948128906317,0.960237978789663,0.353101253783593
20,1.89168902076021,2.74769735336304,-1.01348459774622,-1.58401222706552,1.89168902076021,-0.0497581492283621,-0.000973383754910323,0.0497676691293281,-0.0563955067001578,-0.132883842119805,0.146491715157205,0.0094513667163991,0.133311994647363,0.135630251853625,15.3634017371461,1.14460299332012,1.13397756237574,0.176658511232611,0.24022747617312,0.153628492943707,0.468856816420613,0.159434968089983,0.035738417577072,NaN,NaN,NaN,NaN,1.95533603544456,-121.682915799118,1.6195889215169,stable,stable,1,0.53157645590678,0.201725947509347,0.204891342533223,0.893767611446084,0.331720669802797
21,1.89236207910486,2.8746542930603,-1.04501070822007,-1.54612828293638,1.89236207910486,-0.081717922873008,0.00915925460098332,0.0822296227859797,-0.0641819593287438,-0.131713504917097,0.152264292914047,0.00982255195189477,0.192744649896614,0.195082893796769,15.4123361866472,0.97049166615885,0.988388306451826,0.175986534649253,0.240281459177054,0.160653298552521,0.394752403418021,0.159541893354221,0.0355051966670957,NaN,NaN,NaN,NaN,2.01006102178809,-122.843348050567,1.6504341753569,stable,stable,1,0.54364646652065,0.236091178984071,0.22547319615409,0.896615532890575,0.328598533976657
22,2.61459825436274,3,-0.732038025758923,-2.47864637109622,2.61459825436274,0.00680174275778129,0.00553269997282193,0.00876780893566311,-0.0364901822306195,-0.320733494504797,0.324439779518835,0.0209507496541745,0.192912074822855,0.195401349871158,15.3643240374477,2.04659407620819,1.90376968952716,0.0219525575394959,0.0653870997714937,0.131277682226576,0.414340465794214,0.000326103368487932,0.00986667082609784,NaN,NaN,NaN,NaN,3,-105.373889448931,2.19652196542863,stable,stable,1,0.736306471137629,0.088322824406588,0.0567265097747911,0.957985148785189,0.341654363454855
23,1.74317460806191,2.34384536743164,-0.853383696947997,-1.50911165881141,1.74317460806191,-0.0454152224095584,-0.00803017157449779,0.0461196929957857,-0.0400864654155999,-0.120591679187911,0.128390365147404,0.00828442871229617,0.118375035301924,0.120475051418439,15.3581487235354,1.16504484051965,1.12422447601435,0.175646401174096,0.240210039030421,0.159431844056164,0.454363713922497,0.156623162465225,0.0400010063397941,NaN,NaN,NaN,NaN,1.75191981509009,-118.497538474994,1.55114449970409,stable,stable,1,0.488941572433532,0.143606197907416,0.170319833660636,0.894189683354471,0.329141402641705
24,2.59755365987157,3,-0.589162929250823,-2.4979416966223,2.59755365987157,-0.0166520574456489,0.016400674200201,0.0233724866326699,-0.0275286866316954,-0.335170523440275,0.337399971680856,0.0217825571789224,0.198349698804133,0.20030268175047,15.328928192671,1.80660994648109,1.4420487016796,0.0622128409165852,0.240458940092869,0.121412333919925,0.504069684456138,0.00192165760136608,0.00942823143480323,NaN,NaN,NaN,NaN,3,-102.185830974197,2.34065726441142,unstable,unstable,0,0.732741512315845,0.0948353824115535,0.0611837472864576,0.943368404449016,0.346038962702256
25,1.73808549293855,2.47164463996887,-0.935048554973652,-1.45100445177096,1.73808549293855,-0.0493211545682309,-0.00107341426436256,0.0493328339559594,-0.0481171388992572,-0.112142779222648,0.124143639649031,0.0080115002884111,0.115172350527274,0.117139277449763,15.3680596884344,1.1667473969728,1.23044409088057,0.176627674554787,0.242068914973207,0.159444357123082,0.450581332004063,0.156774484016463,0.0414760152980859,NaN,NaN,NaN,NaN,1.79680657025774,-122.144595008979,1.58492412016893,stable,stable,1,0.486917320273567,0.174095160973747,0.189216832417132,0.892851086746616,0.32913584127863
26,1.85290702660879,2.6694188117981,-1.03152787723151,-1.52394862192637,1.85290702660879,0.00406891352856467,0.000458317308748903,0.0040946443140321,-0.0577146453129716,-0.122069836676255,0.137586957804347,0.00888499705414323,0.127827341280502,0.128904525045441,15.4059194223784,2.09397158386528,2.03193022499869,0.0213533118080835,0.0600260325279007,0.131546401538867,0.485411502813535,0.000252643982799971,0.00598633035935875,NaN,NaN,NaN,NaN,1.89015622586425,-123.159855511628,2.19578101682257,stable,stable,1,0.519889445438097,0.184465836458501,0.112968635493081,0.95690554416917,0.341534932649392
27,1.70023202085171,2.54374480247498,-0.809500084580065,-1.47705269696585,1.70023202085171,-0.0356022833219366,0.0123373171326496,0.0376793308296075,-0.037308907718533,-0.116741638992422,0.124670302325134,0.00804162235806688,0.14116741096636,0.14307851092843,15.429760856885,0.931411615328672,0.966782128431563,0.176379919528366,0.240205137792515,0.137185863269058,0.454443107757583,0.159613379388001,0.0341460950159557,NaN,NaN,NaN,NaN,1.77620387229689,-117.832865156267,1.98290113623591,stable,stable,1,0.482010907746141,0.196698253183997,0.201374993462382,0.896895660820558,0.339028505213752
28,1.69371873586356,2.62650632858276,-0.953231407168236,-1.38181076139442,1.69371873586356,-0.0496814645589659,0.00209719607483387,0.0497257091663868,-0.0509345078103682,-0.102258760688938,0.117111273075718,0.00755414749262806,0.132602213962858,0.134467828228802,15.4140115282398,0.927343091206856,1.02281574506834,0.177596615331341,0.240225913475499,0.176055647281602,0.530832716052337,0.159636841251776,0.035296609979474,NaN,NaN,NaN,NaN,1.77693740749085,-123.63065316624,1.74093865554717,stable,stable,1,0.478551895209377,0.218993588375658,0.215180991150033,0.895879015763596,0.321753045652621
29,2.62530651887258,3,-0.521107462453413,-2.53940123107898,2.62530651887258,0.00595716210967989,0.00576217157982417,0.00828796728494624,-0.0233228887633868,-0.335298655073135,0.336925177765891,0.0217573272765879,0.198668901022554,0.201399219791593,15.3415469232818,2.06031259019289,1.76243366924036,0.0206032398167822,0.0691215544472289,0.121835267931332,0.5208488206262,0.000309534291765005,0.00724307680457608,NaN,NaN,NaN,NaN,3,-100.208461528465,2.21149354278095,stable,stable,1,0.740361582324339,0.0858254939225766,0.0542667132606409,0.959662516624633,0.345850992030519
30,1.83738307725816,2.66659688949585,-0.93582376183769,-1.5623168419217,1.83738307725816,-0.0498748370621664,0.00705006865231393,0.0503706545518319,-0.0496455142407654,-0.131144552072289,0.14293833549561,0.00921915249055862,0.147927494854584,0.150148875378186,15.4624190447125,0.887698151137539,0.908389325467686,0.176504826302677,0.240249172936665,0.153769744533824,0.385801404764239,0.160029534584987,0.0367120835162866,NaN,NaN,NaN,NaN,1.90894849737311,-119.745808657761,2.07786302243267,stable,stable,1,0.519998595677812,0.19580772775465,0.201958722797495,0.897635470961049,0.3316578913183
31,1.89389926803355,2.70193409919739,-0.940551679997173,-1.62332652044943,1.89389926803355,-0.0552521670212613,0.0107025240958636,0.0562791789436191,-0.050151462769083,-0.140506632898856,0.152058521573097,0.00980810634511335,0.153094313110726,0.155573984641316,15.453064926124,0.953632835907493,0.940198108581515,0.176881292738613,0.240238579026875,0.17497967773305,0.435123548945125,0.159937724619156,0.0383972710084033,NaN,NaN,NaN,NaN,1.95935225919259,-119.13516242978,2.17891905627161,stable,stable,1,0.536154601737211,0.19212568648486,0.200321489058041,0.896679253352565,0.322231254340867
32,2.61422425746918,3,-0.644888804009133,-2.49779332940051,2.61422425746918,0.00694258997907398,0.00465956261154374,0.00836128455133747,-0.0314940144801082,-0.324993192050543,0.327967364092028,0.0211806702295921,0.203431579952644,0.206002674635357,15.3171462889177,2.03731534003473,1.8170195741658,0.0325220376338853,0.0733515778616126,0.120050165017186,0.521678015139051,0.0151423914919974,0.00713275903680871,NaN,NaN,NaN,NaN,3,-103.01941117063,1.72388791670414,stable,stable,1,0.738327003585519,0.0883324442371803,0.0623231488753688,0.95345492114291,0.346644371103473
33,1.87139836055081,2.93899893760681,-0.820770871101038,-1.65404473007562,1.87139836055081,-0.0656269822910145,0.00595488387534843,0.065896596623756,-0.041362615288057,-0.148638490822302,0.157237959760683,0.0101410403083374,0.176882815306505,0.179379624280496,15.4662962353647,0.948521468395223,0.758806305330345,0.17652709874276,0.240278431485216,0.135192050310857,0.361327057871366,0.1595888047673,0.0359910910521604,NaN,NaN,NaN,NaN,1.93692079365451,-115.089103932968,1.92064617452969,stable,stable,1,0.534915487669648,0.252291172551956,0.235390730679042,0.89832173240649,0.339914644306286
34,2.66762905888241,3,-0.593396737456124,-2.56500294973317,2.66762905888241,-0.0302130147507819,-0.00801971972597173,0.0312592732611317,-0.0245493681757647,-0.339522820293193,0.341361972285332,0.0220244627035845,0.196179141180953,0.198220634997345,15.4368434079895,1.40674838990043,1.02932895649332,0.0627784617600881,0.240210474092326,0.107267359934198,0.399956618707334,0.00185018601383368,0.00659676866473928,NaN,NaN,NaN,NaN,3,-101.157933097739,1.71691577965491,unstable,unstable,0,0.751011876034779,0.0805143285159983,0.0515297269736323,0.949470161398291,0.352325617807023
35,1.79387127704361,2.53601384162903,-0.802775842262662,-1.59081951170843,1.79387127704361,-0.038237790718337,0.00564669793756817,0.0386524751680598,-0.0361067769591552,-0.134207708471228,0.140356850089163,0.00905410915009927,0.132348782597213,0.134726099152789,15.437973990907,0.974446422819248,0.931407178921543,0.176650142991141,0.240210701201433,0.176802362056816,0.416797086880823,0.159769411141664,0.0368874237116492,NaN,NaN,NaN,NaN,1.86137587595629,-115.841095627455,2.35299077018977,stable,stable,1,0.505310893708854,0.174068364145864,0.188863254284009,0.896700364490752,0.321421172419193
36,1.95155740062396,3,-0.88558514644015,-1.7076393090996,1.95155740062396,0.00461130445036068,0.00271952988547332,0.00535350086689997,-0.048101774682094,-0.157565795892724,0.168590493693654,0.0108866475502888,0.199000634010013,0.200201499547395,15.3710634893785,1.862002769985,1.97727996249308,0.0170757530739852,0.0697782536215774,0.129441718508897,0.486707533670169,0.000151995408925536,0.0052259279534282,NaN,NaN,NaN,NaN,2.00134863438598,-116.022448666907,2.37900758191999,stable,stable,1,0.560455606742534,0.236881060018541,0.144096526963813,0.961296330564965,0.342470347329379
37,1.79432046373148,2.8572473526001,-0.809757799985957,-1.57446899878011,1.79432046373148,-0.0664162736880158,-0.00143679539819113,0.066431813098979,-0.0397897671431289,-0.135647360391575,0.144325920784345,0.00930794094948787,0.179794030121949,0.181940394860191,15.4774731691336,0.801523032956372,0.765416079144771,0.177056641268419,0.240268154576417,0.146073179949705,0.370627580798676,0.156829595809191,0.0411488579787496,NaN,NaN,NaN,NaN,1.84847057739295,-116.145839673518,1.97294069121508,stable,stable,1,0.5148735359671,0.251337715730251,0.235467893103195,0.899160014913567,0.33507858668902
38,1.96264252938381,2.80425357818604,-0.762187151243419,-1.79475384259351,1.96264252938381,-0.0444189792352117,-0.0218751976121699,0.0495133314054877,-0.0329882593560427,-0.170004511434288,0.174273573834266,0.0112406557604755,0.129970983505166,0.132757787167753,15.4461121670835,1.06279615433009,0.761114316771157,0.177879782824653,0.240251534515918,0.148730380450412,0.447074542758897,0.16002821488667,0.0386541843861857,NaN,NaN,NaN,NaN,1.9993932608471,-112.620106358339,2.49305075652978,stable,stable,1,0.549922898602566,0.198439930071507,0.204243676153168,0.896729383457592,0.333897608688706
39,2.62755710681279,3,-0.625317340944186,-2.52036656051425,2.62755710681279,0.00592569134008819,0.00573405252658493,0.00824579748936579,-0.0292164913882094,-0.330537774387684,0.333021418377501,0.0214936402831551,0.194722465448573,0.197370601218538,15.4213709963865,1.60370094955269,1.5149774886744,0.0199894529961377,0.0535868241621249,0.112156936404437,0.420307559548101,0.000230218424621632,0.00846400108618229,NaN,NaN,NaN,NaN,2.9987372183553,-102.731971335258,2.24796314855683,stable,stable,1,0.740156015393786,0.0853113805068382,0.0543669661807283,0.96550137148729,0.350152472709139
40,1.89274594086368,2.49428129196167,-0.293818288497794,-1.85728200628826,1.89274594086368,-0.0451047317722794,-0.0168915058774278,0.0481638848002988,-0.0070553227403776,-0.182165835710784,0.182423937486836,0.0117646701116729,0.127320754523976,0.130319625078158,15.4669626039219,0.893880983445976,0.578678338052293,0.176875625759391,0.240230186441156,0.124383719813651,0.384917356422709,0.158821008808797,0.0342937355409354,NaN,NaN,NaN,NaN,1.96262077332345,-97.9255988407311,2.26064820824558,stable,stable,1,0.530796175912613,0.144175499543769,0.169562864040006,0.899992078165675,0.344718346749489
41,1.91600998833373,2.67433762550354,-0.270846829970689,-1.88345731707383,1.91600998833373,-0.049653890091662,-0.0259657674806239,0.0560332926222676,-0.0066795175612353,-0.187260454232009,0.187517658999796,0.0120949543839893,0.126015850549372,0.129063132304785,15.4388322921817,1.04727683866568,0.663736569857027,0.176144165446994,0.240285086968475,0.144051377709844,0.378080782980422,0.156818976119339,0.0417171413307753,NaN,NaN,NaN,NaN,1.94919332297993,-97.076725643542,1.94729822186034,stable,stable,1,0.536748623349951,0.18089648867729,0.193405085500908,0.898484240495253,0.335977165462292
42,2.60555289109548,3,-0.626703844751443,-2.49702920009297,2.60555289109548,0.00901341854168015,0.00426768816624232,0.00997270655799058,-0.0291794540049756,-0.324908207156301,0.327358989126087,0.0211310859654271,0.192885065324299,0.195500873377667,15.4398274677399,1.72711238250755,1.76439446292405,0.0209211606851631,0.0495076822136199,0.122601435753276,0.470335035435168,0.000217003180715493,0.00835065500103935,NaN,NaN,NaN,NaN,2.97766096785849,-102.83550377438,2.20361136430781,stable,stable,1,0.733914278967661,0.0905789290391487,0.0574804051001448,0.96210615158617,0.345510472998544
43,1.839886777255,2.5528507232666,-0.240321490831862,-1.80600733845001,1.839886777255,-0.0463664518261202,-0.0179329224588397,0.0497135551219049,-0.00653975686789267,-0.17306555603726,0.173360376912636,0.0111816372297649,0.142851222560441,0.14580386388165,15.4338097165766,0.996013089094162,0.716997564451579,0.176353076923963,0.240243830570097,0.151730617294057,0.439632098109908,0.159934494263348,0.0366710279937441,NaN,NaN,NaN,NaN,1.87761184680711,-96.9149867627548,2.26237708871691,stable,stable,1,0.519797246710997,0.16953103962496,0.186135540495805,0.898364092117302,0.33256417009153
44,2.47053975428658,3,-0.565910758543567,-2.37245974957761,2.47053975428658,-0.00601379834110539,0.0126955398632872,0.0140478647099051,-0.0274103334257387,-0.301262152925167,0.303658530984038,0.0195992739657939,0.217360709736069,0.219031535108511,15.3448594638594,1.60285149667453,1.33860349473719,0.0620722754673461,0.240448342233412,0.125095427065805,0.489847405268488,0.00189476118252545,0.0104559204599842,NaN,NaN,NaN,NaN,2.70268226585959,-102.84402520654,2.46098199657903,unstable,unstable,0,0.70261690816479,0.121703997149002,0.0776666672650634,0.945852430190949,0.344402032415198
45,1.67459409658601,2.53927159309387,-0.239030239171419,-1.63460211763662,1.67459409658601,-0.0607850114351748,-0.0285695548608345,0.0671642544819829,-0.0071394251992542,-0.145781902634301,0.146198680859322,0.00942942388984043,0.168982882808366,0.171300937922387,15.4351133409743,0.891564319797568,0.629411317876318,0.177054577803841,0.240217337018465,0.108313422431576,0.388871981861664,0.159729649938936,0.0376141450510415,NaN,NaN,NaN,NaN,1.74484723470437,-96.8322370152764,1.65380219920222,stable,stable,1,0.480818613340746,0.2068658833693,0.208788356477648,0.899522188230642,0.351860701141522
46,1.67624566347703,2.58068203926086,-0.250196467324476,-1.6347094622704,1.67624566347703,0.0054452016475424,0.00646942915526682,0.00845598808995228,-0.00755688468783041,-0.14431366341008,0.144744990786781,0.00934586285735408,0.174504343709329,0.175643956278929,15.3950587824194,1.95465655149452,1.99168491947929,0.0185216141124082,0.0472868736288484,0.142099573726513,0.394657270454781,0.000299593459568076,0.00752643318649695,NaN,NaN,NaN,NaN,1.71876069037497,-96.5690723186371,2.34045288883454,stable,stable,1,0.48212763484966,0.205048449034521,0.1258991068645,0.959732224243287,0.336844633899328
47,1.74280078539112,2.61354660987854,-0.155746650322019,-1.71416232535488,1.74280078539112,-0.0633944777053,-0.0349202991702523,0.072376011893912,-0.00496055426823505,-0.16158753789974,0.161820443265334,0.0104384309132402,0.190680487352584,0.193306960451113,15.4187954047584,0.943010875680342,0.791976873734549,0.174152834460247,0.240260767758671,0.166076467766718,0.377636899051038,0.156596090771109,0.0420569074097916,NaN,NaN,NaN,NaN,1.8330973949862,-93.5355183886098,2.38160385492273,stable,stable,1,0.503408268194522,0.209186746023553,0.210403731055357,0.899291536167331,0.326188236548125
48,1.71081935224079,2.36690211296082,-0.19886878197679,-1.68743729618759,1.71081935224079,-0.0389849508139255,-0.0103297416879588,0.0403302610121004,-0.00405164876522614,-0.149631614598064,0.14975292879054,0.00965791683141048,0.11467412984465,0.117270709611684,15.4613841273791,0.828933822181717,0.593429681719188,0.177274314625527,0.240185737914603,0.128570010999939,0.40531989470558,0.159686880685562,0.0376348655394496,NaN,NaN,NaN,NaN,1.76093856199151,-95.8152911333806,1.82501056307339,stable,stable,1,0.479672635853214,0.155012502347558,0.177664854030604,0.900187129442301,0.342857772888916
49,2.62432374556859,3,-0.669430968107028,-2.50225283063841,2.62432374556859,0.00424280407852637,0.00333197226455147,0.00539475908827264,-0.0330641462826638,-0.326549360796098,0.329697970778783,0.0212937621815915,0.194062064569526,0.196618004617442,15.3204860348376,1.99317940569722,2.09045381667004,0.0161892924978143,0.0709265881325624,0.133975368507129,0.472009784125239,0.00018609686956668,0.00738263740140594,NaN,NaN,NaN,NaN,3,-103.690253195533,2.40153826685953,stable,stable,1,0.739143266408447,0.0855161964132498,0.0540770229864504,0.959819664146779,0.34045539177461
50,1.65232625137381,2.43589043617249,-0.163163882960741,-1.63368630858924,1.65232625137381,-0.0382443629315825,-0.0171982063649934,0.0419333947852484,-0.00307813940926368,-0.142598929186428,0.142676516063968,0.00920366405224311,0.124523842240467,0.127107495337616,15.434592313011,0.984186741041874,0.770991143278109,0.176706041292859,0.24020796095444,0.162165589336243,0.398045538315808,0.15959434092045,0.0356861356396333,NaN,NaN,NaN,NaN,1.72627812567413,-94.411640590645,1.9068060755333,stable,stable,1,0.466041832767206,0.183989730623664,0.194301433157295,0.897856295976771,0.327926404739448
51,1.58541981135907,2.25817179679871,-0.125626299266338,-1.57045864711701,1.58541981135907,-0.0378105987846061,-0.0111448492314436,0.0394188919788731,-0.00218294396173285,-0.13018811997163,0.13024343154544,0.00839974430818126,0.105440905199434,0.107628661940708,15.4644034787652,0.873522423752661,0.58701894302975,0.176640544090558,0.240178803201633,0.114677191448109,0.428642719775978,0.159413396220913,0.0348125810987758,NaN,NaN,NaN,NaN,1.64198518080473,-93.7945426045898,2.35442267812435,stable,stable,1,0.44430434875056,0.158595993586712,0.178667114871988,0.900204045787145,0.349032359356396
52,2.63187581062317,3,-0.651709563714054,-2.51533687756661,2.63187581062317,0.00759434070848714,0.00305562221348451,0.00818601477570892,-0.0316121301501803,-0.328809942858638,0.331791069814659,0.0214273732403047,0.193064514626248,0.19575484251254,15.3799582507442,2.10148070550725,1.86851094056192,0.0309889868503456,0.0720144288417108,0.126692515601394,0.465695504901139,0.0079193684226042,0.00491519137340649,NaN,NaN,NaN,NaN,3,-102.899260755177,1.840828935913,stable,stable,1,0.74098451800202,0.0843287119853336,0.0559042888077377,0.953312715069998,0.943692215288269
53,1.71197264048518,2.41138410568237,-0.133514374834508,-1.69497704569237,1.71197264048518,-0.0357464477231123,-0.0143794149742766,0.0385301972461037,-0.00262768939392865,-0.151776511417679,0.151847080279358,0.00979717713771914,0.114825065960983,0.117379867346804,15.367582698669,1.21589559533023,0.830112009763752,0.17831117921197,0.242786582681866,0.150085656495503,0.46225011630399,0.158939776483892,0.0352461647993982,NaN,NaN,NaN,NaN,1.76767167051157,-93.7767495596924,1.58203856769721,stable,stable,1,0.480002010932075,0.164431449164488,0.182115557357981,0.894768636353991,0.333295263779776
54,2.57632041781448,3,-0.531401131640665,-2.49027705274552,2.57632041781448,-0.0133518784821176,0.0217295172314435,0.0255038149717417,-0.0243500208192179,-0.337589642627333,0.339380278549289,0.0219023982188416,0.19939022198013,0.201380350639812,15.4405622131051,1.50034729230621,1.3528476142549,0.0626330517660807,0.240312143744818,0.118731828708224,0.368780067618048,0.00192855879084266,0.00925038736797131,NaN,NaN,NaN,NaN,3,-101.106544404973,2.3360871256634,unstable,unstable,0,0.727294848211823,0.100003605403229,0.0642230777070286,0.946265514136837,0.347230298351901
55,1.6064609402702,2.28766870498657,-0.147547993385804,-1.58508489097665,1.6064609402702,-0.0428421605339279,-0.0179545671959913,0.046452311055643,-0.00319995329874672,-0.133627184782793,0.13373685716231,0.00862542469766075,0.122757407614094,0.124851436474345,15.4629665230983,0.932384925105069,0.612268140876765,0.176603246065354,0.240174147747146,0.116474440875875,0.375316333555009,0.159525732202574,0.0367962900746928,NaN,NaN,NaN,NaN,1.6954412846166,-94.4207914550518,1.75766641455477,stable,stable,1,0.453359871366921,0.161788004088052,0.181353596994268,0.89956181716318,0.348233581832944
56,1.69408518115679,2.36421251296997,-0.0814671719344754,-1.68117707296622,1.69408518115679,0.00248331681102438,0.00455890072694291,0.00519138114782925,-0.00141168626296111,-0.147931935518913,0.147971336230728,0.00954939993847537,0.118777476533953,0.119972905031621,15.4395728179959,1.47993528039426,1.57061242698592,0.0212942342550801,0.0484384980412948,0.107045644860812,0.391548220359861,0.0001396276060819,0.00544984110025455,NaN,NaN,NaN,NaN,1.73280982852964,-92.1431804697514,2.21076839761018,stable,stable,1,0.475750629314803,0.1517304028684,0.0930820588349468,0.965384293743044,0.352424157839639
57,1.59958138352349,2.32925415039062,-0.174055972014781,-1.58005006852742,1.59958138352349,-0.0406297642239076,-0.0250153938722879,0.0477131813179127,-0.00320453381196577,-0.132858863319327,0.132948378557841,0.00857436913505478,0.122512740895104,0.12468558659638,15.4462971673373,0.906681692419651,0.520887764930415,0.177197728217915,0.240176848076044,0.122336474178809,0.323600847811773,0.159830427589147,0.0350094657719257,NaN,NaN,NaN,NaN,1.65239533729994,-95.8334835366937,2.4400828326875,stable,stable,1,0.451492152925539,0.172923789120057,0.187520733893365,0.900184518726149,0.345628233698307
58,1.61862799667177,2.31133723258972,-0.0873176365695404,-1.60707813908623,1.61862799667177,-0.034824469166653,-0.00630141672735633,0.0353899916008886,-0.00133680682566997,-0.13664403058316,0.136671962542394,0.00881547348935145,0.115212856388415,0.117543332403478,15.4495067631761,0.937157836540028,0.680039861659712,0.177244735244314,0.240170997243247,0.117059115081852,0.403391048950136,0.159666056655404,0.0354837665072201,NaN,NaN,NaN,NaN,1.68060545220575,-92.4282145747537,2.03555331322522,stable,stable,1,0.4551427989265,0.162347743208369,0.181274525592675,0.898671079034845,0.347973726630288
59,2.50535958607992,3,-0.506191971921257,-2.42345842090876,2.50535958607992,0.00551092592982645,0.00317827556766769,0.00636174034271023,-0.0218615324079444,-0.310164676537208,0.311695565646477,0.0201375876446995,0.212769354697323,0.215163430184943,15.3334365366512,2.25754255647118,2.09474520162141,0.0210999876567219,0.0726946363460027,0.127534022864941,0.436728839826693,0.000284185608762138,0.00619795094623904,NaN,NaN,NaN,NaN,2.78982386220964,-100.41262924442,2.21391232587486,stable,stable,1,0.711128575658299,0.112460412194849,0.0698563523760019,0.955253459500912,0.343318212060026
60,1.67079553839301,2.67524194717407,-0.0894961489739038,-1.64434305529989,1.67079553839301,-0.0651081078610582,-0.0291135656450759,0.0713208624023667,-0.00240007326955579,-0.148690549023674,0.148844410879885,0.0096004034051847,0.177224848172418,0.179691619459138,15.4326739578472,0.827109604528779,0.721728382345869,0.176803358536576,0.24023703282743,0.137773651634852,0.359044711899527,0.159455412214131,0.0359019770406691,NaN,NaN,NaN,NaN,1.72864210057146,-91.9462754292346,2.39806389331616,stable,stable,1,0.48148380079663,0.239075933416173,0.227369896523299,0.899428879406268,0.338767265940066
61,1.59434821370508,2.32378506660461,-0.18876620531576,-1.56552841624553,1.59434821370508,-0.0473778296199866,-0.0162150523081595,0.0500758091383138,-0.0044966244412236,-0.130125137609876,0.130322621577314,0.00840889491802394,0.133638661258043,0.135734320358659,15.3380534198916,1.15816569568393,0.996552219546967,0.177239491525719,0.240182227714595,0.150930614037499,0.462310691769931,0.159441391905976,0.0356756106178366,NaN,NaN,NaN,NaN,1.6541677253945,-95.777639022521,1.97766554677996,stable,stable,1,0.452306387726419,0.173303856911087,0.18781810430933,0.894450327760327,0.332919727094445
62,2.62167058388392,3,-0.54797202718651,-2.53237049837281,2.62167058388392,0.00745726238563702,0.00810528441148704,0.0110139183617517,-0.0243401734744326,-0.333935113332286,0.335663723601535,0.0216659924877267,0.1997880985613,0.202431610975055,15.4320232577737,1.59698988411142,1.71051243260572,0.0283484696944712,0.0526166237978626,0.112989687095474,0.431320501619736,0.00530938989882648,0.00754179852497783,NaN,NaN,NaN,NaN,2.96888331606625,-100.576107342626,1.92432422224972,stable,stable,1,0.73959847789739,0.0871433369924389,0.0573882032302872,0.959838246949987,0.349782361290901
63,1.53744737063946,2.26840376853943,-0.08861252804719,-1.52485857451392,1.53744737063946,-0.0337292302114997,-0.0146673611715254,0.0367803270023027,-0.00136607968005338,-0.12247075487929,0.122509615204478,0.0079008774652695,0.101240364716097,0.103351725417977,15.471814940736,0.837925797067384,0.582857914073033,0.176149190288826,0.240157880820323,0.110646408821461,0.39463886109331,0.159518815051653,0.037767871415289,NaN,NaN,NaN,NaN,1.60300708299886,-92.1234906695166,2.36550267282065,stable,stable,1,0.430656310587452,0.171208249477914,0.187355972244558,0.900762104268055,0.350823818301573
64,2.60394559290217,3,-0.578918816656402,-2.50657361315926,2.60394559290217,-0.00765671015686093,0.015768432896561,0.0175290811635843,-0.0282323929601376,-0.335051691523092,0.337402326047974,0.0217806035394805,0.201248108648453,0.203178563520812,15.3921971702958,1.78975423339173,1.40241778058546,0.0623932382403697,0.240488451804864,0.130875004187894,0.384864978895937,0.00194837600998691,0.00964694173134887,NaN,NaN,NaN,NaN,3,-102.201792877698,2.46717484897298,unstable,unstable,0,0.735021204144742,0.0923259064770016,0.0597694675909281,0.943722029341423,0.341833331472047
65,1.50704050144634,2.08836221694946,-0.151738816601223,-1.48425342435301,1.50704050144634,-0.0488771106186511,-0.0295013501926254,0.057090293444821,-0.00323628030255513,-0.117530403556484,0.11766222817591,0.00758751031590211,0.123251448876573,0.125157662248317,15.4735238274014,0.673922944395243,0.482031505190151,0.17632123932426,0.240180890246184,0.114733742069504,0.393945588298698,0.156764777632288,0.0405196281660073,NaN,NaN,NaN,NaN,1.55228808798252,-94.2268777224065,1.86631020886249,stable,stable,1,0.42690899950202,0.14126393978642,0.169166008617276,0.902756881091128,0.349007225746887
66,1.58875238935153,2.41793370246887,-0.123450628017228,-1.5729674623311,1.58875238935153,0.0030657773409139,0.000917988685954948,0.00320026466586787,-0.00221752096815753,-0.12946014483602,0.129519845191388,0.00835608551499986,0.110047050158885,0.111057567656427,15.4512482245716,1.35243863747426,1.22945573972489,0.0214319037760676,0.0457589558566046,0.0923587278349898,0.360381561065499,0.000171730789619667,0.00759731700707863,NaN,NaN,NaN,NaN,1.60696450398557,-93.5145725727472,2.19010290925339,stable,stable,1,0.445878817358359,0.187152510640145,0.11513049190932,0.968997735148259,0.358951676517782
67,1.65912039263719,2.39184927940369,-0.109099471079121,-1.63982715423375,1.65912039263719,-0.0438465459731402,-0.028877440263905,0.0525016775919598,-0.00237847374544763,-0.142001245495228,0.14208663730944,0.00916791422619377,0.123833497582267,0.126284971387214,15.3737264568164,1.18289659131905,0.88445527104604,0.17679553593866,0.240190977519353,0.139208056549834,0.430204704857403,0.159573702512486,0.0355825219233165,NaN,NaN,NaN,NaN,1.70472744872138,-93.0615211949791,1.75678197653026,stable,stable,1,0.467689098980693,0.174489307080988,0.188554328690904,0.895358753112087,0.338129752644518
68,1.56858721720118,2.28331995010376,-0.123235650367647,-1.54477940319718,1.56858721720118,-0.0524456786105779,-0.0164705408138147,0.0549711553419024,-0.00288926545954981,-0.129667047025444,0.129792476172629,0.00837292295840263,0.161700910262997,0.16378011819164,15.4246424525794,1.0485046216573,0.804408197856455,0.177032721755533,0.24019997773591,0.163056681185468,0.390910676786093,0.159543247997457,0.0343707219918673,NaN,NaN,NaN,NaN,1.6346567991892,-94.1375227104005,2.19635194984347,stable,stable,1,0.45104594822531,0.170892910049096,0.185942300611229,0.896925038397483,0.32753036391757
69,2.61693939288457,3,-0.383166008585318,-2.55598697942907,2.61693939288457,0.00563645095787539,0.00480137260151077,0.00740423920866099,-0.0160306530941296,-0.339656636166959,0.340526942227163,0.0219855760274919,0.196411843762202,0.199095633443106,15.3949657105698,1.91037345163099,1.71958539511805,0.028737764447293,0.0549434497430059,0.116051611352755,0.400084017756183,0.00735492778694551,0.00582097468340256,NaN,NaN,NaN,NaN,2.97762147861884,-97.4745863886534,1.90044988187571,stable,stable,1,0.73766963145784,0.0875460804558924,0.0579132231344253,0.957110012551897,0.348421506065442
70,1.69280057942786,2.34056448936462,-0.0825774134246332,-1.67786605609808,1.69280057942786,-0.0433526854681539,-0.0127788402753828,0.0451968372354132,-0.00167685687006063,-0.147794361605755,0.147847310145683,0.00954009195056519,0.113419997549911,0.115916018741632,15.3444921614837,1.19930546724715,0.972857364628049,0.177264782423465,0.240180838720475,0.15429365526878,0.434284683605421,0.159512894576776,0.0367241959527159,NaN,NaN,NaN,NaN,1.74106956136438,-91.9626622500687,2.02721303983753,stable,stable,1,0.474596691595756,0.154032966562264,0.176668652822974,0.894300615109248,0.331425042102764
71,1.62567287156371,2.32274770736694,-0.203250102475804,-1.6028180950921,1.62567287156371,-0.0377935296434703,-0.020355048712741,0.0429264358060384,-0.00398678649713623,-0.135890734893719,0.136013738851081,0.00877064660940261,0.117564233053066,0.119985703356033,15.4741624985937,0.758525213836612,0.420040178374214,0.176065644828052,0.24018180483855,0.108982923018079,0.389717634440963,0.159642053488195,0.036491201371949,NaN,NaN,NaN,NaN,1.67774962146967,-95.9395937551425,2.43900308816779,stable,stable,1,0.457509906421529,0.164711684620168,0.183048562316249,0.902707020932889,0.351563145325298
72,2.61773805953188,3,-0.610493169885508,-2.5120805742264,2.61773805953188,0.00618392320459409,0.00492893373954962,0.00790792602451413,-0.0286963579217367,-0.328308684697143,0.330694125538804,0.0213553270363245,0.199143639778358,0.20172186369016,15.3235385351851,1.92995412417121,1.90129015180038,0.0222736346649593,0.0542086578757876,0.135405281385249,0.449634766706582,0.0107860775603468,0.00933459461411709,NaN,NaN,NaN,NaN,3,-102.28205700878,2.08219559039006,stable,stable,1,0.738407855279868,0.0874587230431535,0.0606634441164322,0.958760549070601,0.339819874939889
73,1.68088046912433,2.69676470756531,-0.165578820313384,-1.64804375951831,1.68088046912433,-0.0586710207244867,-0.0127290405792951,0.0600359654450771,-0.00494697106229534,-0.146794451711513,0.147067820900452,0.00948931534796548,0.166286469551325,0.168736809686029,15.3677491135848,1.16754510270102,0.970900502731453,0.176564389791013,0.240250497328396,0.149707304628198,0.420186611165806,0.159527661141794,0.0379007832851116,NaN,NaN,NaN,NaN,1.730743683828,-94.7490683234343,2.13064472157579,stable,stable,1,0.481982153703695,0.23958054731415,0.228431614130944,0.894915732490381,0.333463420165245
74,2.60514996595646,3,-0.565876501363924,-2.51130718198127,2.60514996595646,-0.0118912166032472,0.0165532331198452,0.0203816230714161,-0.0267776688161023,-0.336857348891374,0.338996702254218,0.021879420437366,0.197318284731161,0.199353516921625,15.4298707539628,1.61697809207666,1.35176694023723,0.0627129266889296,0.240493382721223,0.117230491283219,0.416923064579975,0.00192199449530682,0.0105834870766849,NaN,NaN,NaN,NaN,3,-101.440236798872,2.43551226525747,unstable,unstable,0,0.734577360972715,0.092577888556222,0.0602494936645832,0.945317682830212,0.347897559429681
75,1.66581860894249,2.54104995727539,-0.183557933361175,-1.63354135177195,1.66581860894249,-0.0528064412092371,-0.0247422052872442,0.0583154949877024,-0.00491659165430179,-0.145173065826856,0.145429686456382,0.00938374686367749,0.15969397070053,0.161981931508807,15.368729646802,1.24558473462009,0.910063709706452,0.176258338189176,0.240225286899698,0.15448997576663,0.451355570428651,0.156776989856394,0.040726415927967,NaN,NaN,NaN,NaN,1.72844746755899,-95.0560971705178,1.5,stable,stable,1,0.476614682019758,0.207618227455982,0.209059204423975,0.894933593128561,0.331337788548164
76,1.75174301862717,2.47396111488342,-0.223089137303292,-1.7202425938045,1.75174301862717,0.00387666747678281,0.00441147447616438,0.00587278960796276,-0.00571824784524996,-0.156404428211802,0.156654324671277,0.0101118932244008,0.148204815599931,0.14942038265745,15.4365284026695,1.65375326260299,1.58668363109848,0.0265925045611747,0.0513413373720426,0.11315329511263,0.428474040277008,0.00205228930203992,0.00809950041394036,NaN,NaN,NaN,NaN,1.80133462105751,-96.2777836497926,1.98363245103449,stable,stable,1,0.497015548165401,0.163575749752451,0.102002851307951,0.961243172126044,0.349709646616609
77,1.7259482940038,2.30221033096313,-0.139957470967307,-1.70927472998679,1.7259482940038,-0.0422386400822902,-0.0255416004828231,0.0493606733262969,-0.00262691702625665,-0.154093659660195,0.15416033002221,0.0099437434911692,0.111717911605852,0.114373697863338,15.4299406748107,0.937590045687943,0.740297299295341,0.176811399705325,0.240208399279435,0.129041728043605,0.388423013114646,0.159510075264035,0.0351324924453661,NaN,NaN,NaN,NaN,1.75923009576763,-93.8331549635916,2.04143217071159,stable,stable,1,0.483127617973682,0.138708415092337,0.166893867637733,0.898410899579612,0.342648120869509
78,1.78460123830912,2.60959100723267,-0.202785982489409,-1.75625618804682,1.78460123830912,-0.0527235665366055,-0.0198253167623638,0.0563277698215359,-0.00503797857141896,-0.164850911450475,0.165035082781586,0.0106498194436499,0.15045154609485,0.153151293792897,15.3440469350895,1.27776258266954,1.00664169112972,0.176264595777601,0.240244831695914,0.155245868664681,0.449646559622313,0.156618845087349,0.0399914308350679,NaN,NaN,NaN,NaN,1.84421771642335,-95.6415120879709,1.64472781355444,stable,stable,1,0.506523922307678,0.195949455808413,0.201720387564904,0.893918811388491,0.331001836149031
79,2.62198939561844,3,-0.403720473893098,-2.55904992864907,2.62198939561844,0.00609529874235504,0.00367976897243155,0.00711992741880315,-0.0166603887955214,-0.340762494121331,0.341665909606886,0.0220591039244161,0.196494723257,0.199211075860109,15.4171146470532,1.75709429484579,1.7824616323767,0.0334723464246725,0.0585684475897321,0.130473814693817,0.415282431862053,0.0250504237729614,0.00566268799080495,NaN,NaN,NaN,NaN,3,-97.5958361626102,1.53995881681293,stable,stable,1,0.739039387336939,0.0863577060126319,0.0650073045538345,0.95545303021663,0.342011637913859
80,1.78830828066586,2.6133246421814,-0.233297318885384,-1.75773378089169,1.78830828066586,-0.0432972380497731,-0.0113814014484592,0.0447681485173299,-0.0056907081192495,-0.164258549641204,0.164470492066486,0.0106098387104105,0.138063597613,0.140839101120655,15.4340442323417,1.10669922058789,0.791585149919775,0.176071245203463,0.240251980952464,0.164156187520864,0.421218797857222,0.159513497077107,0.0354749589565446,NaN,NaN,NaN,NaN,1.84269174465958,-96.4089816842801,1.91195753694326,stable,stable,1,0.505050028401693,0.19383617523584,0.200096577806437,0.897049285915708,0.327041694435171
81,1.81045055835425,2.78166747093201,-0.211366700216755,-1.77433280271211,1.81045055835425,-0.0561811071515122,-0.00699568472329963,0.0566149839310894,-0.00658626201854202,-0.171964918103185,0.172301361373741,0.0111132192672402,0.187817737668893,0.190730450202229,15.4666714168311,0.936892251958496,0.723936961045987,0.176739637878886,0.240256421565519,0.148097997486233,0.363483829107334,0.159461441067127,0.0369556241704777,NaN,NaN,NaN,NaN,1.90149022471625,-95.3637271300002,2.110120424586,stable,stable,1,0.52093290560158,0.228903219050694,0.221652091805071,0.898580808672665,0.334178667783896
82,2.592002496322,3,-0.396568105729303,-2.52986388439183,2.592002496322,0.00449091869356899,0.00492785248627051,0.00666723937163575,-0.0162752091399663,-0.333791766494994,0.334681738853253,0.0216048115758583,0.20144260605708,0.204066127086573,15.4096460368183,1.8816587736487,1.65891939451943,0.0244464476272014,0.0464669456661611,0.116774639845912,0.389431504955748,0.000784679131087417,0.0082080188592283,NaN,NaN,NaN,NaN,2.91783086718893,-97.7855854258006,2.07154718545294,stable,stable,1,0.73201389110318,0.0930217655456841,0.0591465397385223,0.959957947722221,0.348100160068484
83,1.69362606888726,2.78305721282959,-0.30547233075077,-1.64293504957176,1.69362606888726,-0.0533090128736064,-0.0234979874149625,0.0582581004334339,-0.00951205948116164,-0.147388721209879,0.148045172915043,0.00955224261925155,0.182108309637073,0.184490853704885,15.3432301508631,1.18508093271111,0.996260826927191,0.17725759229149,0.240203791198571,0.151307902445468,0.463701858429783,0.159526226455879,0.0361515687187461,NaN,NaN,NaN,NaN,1.75027764965131,-99.5200046041142,2.33458985895403,stable,stable,1,0.488531789110912,0.255802659133155,0.23752816556003,0.894232090028525,0.33275204335757
84,2.65893622828119,3,-0.458774395573159,-2.58069556090766,2.65893622828119,-0.0279571450221482,-0.0092402922145242,0.0294446083009984,-0.018325278182514,-0.341736530374882,0.342915293280413,0.022134968814929,0.207960289982786,0.210103618994846,15.3892462424281,1.6242450968919,1.46293893184039,0.0629242300286969,0.240478956465276,0.12339306111512,0.374335607363761,0.00185438230064359,0.00901103591012067,NaN,NaN,NaN,NaN,2.95681470906161,-98.270421652992,1.5,unstable,unstable,0,0.751070384673952,0.0821375268252495,0.0533834263374998,0.944281439045612,0.345158639504391
85,2.02615037094168,3,-0.445601130325185,-1.94862455341084,2.02615037094168,-0.0729558646352364,-0.0231013889189803,0.0765260240353628,-0.0173322563015377,-0.207194932849789,0.208661898518633,0.0134587045617563,0.201276062649856,0.204547659105059,15.458591070674,1.09570680064217,0.687470387447797,0.175887389158396,0.240350231772174,0.168113554304302,0.429060296462115,0.159533667409886,0.0363225258669856,NaN,NaN,NaN,NaN,2.10680641889481,-101.731697741666,1.63608936826877,stable,stable,1,0.58121629740546,0.233145937611272,0.223999605973293,0.898045627514381,0.325282864753644
86,1.97261305848757,2.79364037513733,-0.545808891815024,-1.88093830013777,1.97261305848757,0.00293756659325609,0.00443277124177117,0.00531777757824524,-0.0186680658824449,-0.184991085786989,0.186499632629456,0.0120399888049115,0.136644299509112,0.138080431059593,15.3881558038883,1.8467347285742,1.72009405601725,0.0257330652374797,0.0733916147991293,0.116164756564605,0.477902638732815,0.000623955347342463,0.00646795832127406,NaN,NaN,NaN,NaN,2.01104491577433,-105.279667622794,2.0100315636004,stable,stable,1,0.553646235141938,0.18570607213554,0.114052941613131,0.959108384073756,0.34837121930462
87,1.95221669576606,2.86215448379517,-1.10629157706379,-1.58536509085707,1.95221669576606,-0.0569433276560612,0.0152990274648604,0.0589627238678481,-0.0675599894047901,-0.134903893503926,0.155089335763835,0.0100046936159698,0.159946671314847,0.162412561861777,15.3978834315359,1.11347345005648,1.01062496606094,0.177019593100599,0.240288729691868,0.171386366323145,0.463115646995291,0.159562727268392,0.0356281658408686,NaN,NaN,NaN,NaN,2.06469467336038,-124.238920485483,2.2078805496865,stable,stable,1,0.553073631243305,0.215545835015654,0.21319996535364,0.894800858751635,0.323828281634158
88,1.97802325680449,2.731764793396,-1.12562973310843,-1.61065844354115,1.97802325680449,-0.0529138878669632,0.00678572255524735,0.0533472169826539,-0.0694871372426229,-0.137009304528716,0.156666887446881,0.0101034614691926,0.12854258065379,0.131017260776543,15.4618808572548,0.836716813343229,0.804472687302319,0.176492604816668,0.240269849576747,0.1486416274101,0.441122358522115,0.156792980048696,0.0412351471487368,NaN,NaN,NaN,NaN,2.00959748573364,-123.70580417537,2.33915540575401,stable,stable,1,0.553676320636507,0.179372168846575,0.192303669181653,0.898858637229451,0.3339370544844
89,2.61519483009974,3,-0.235514056460181,-2.5737090150354,2.61519483009974,0.00672969452365559,0.00420378761924307,0.00793477275852443,-0.00896913590916485,-0.344619580766079,0.345005702850375,0.0222714959431265,0.198564980312635,0.201361850304454,15.3717439011921,1.82893640717981,1.52491610393909,0.0299581610943329,0.0752446276569645,0.110803584560098,0.51066509139408,0.00991087111122074,0.00564467690406465,NaN,NaN,NaN,NaN,3,-94.0907171926139,1.84826673422627,stable,stable,1,0.737657658087489,0.0880358715666209,0.0592789643282558,0.958669221151185,0.350753962417734
90,1.92019254577403,2.56698155403137,-1.03395192233503,-1.60620129998023,1.92019254577403,-0.0377582067844821,-0.000829222207050217,0.0377673111175309,-0.0582419210916818,-0.1364611476247,0.150337239604048,0.00969770688489786,0.132136059455165,0.134682426576974,15.4373502319876,0.958737459574795,1.0188904353425,0.176901397670411,0.240268297243505,0.165175401049951,0.419728164760599,0.159571217989216,0.0358306970398111,NaN,NaN,NaN,NaN,1.99637079272466,-122.311062912018,2.33104310328596,stable,stable,1,0.538987830855137,0.152451533896116,0.175420806044323,0.896010796276159,0.326588710644466
91,1.87154277855036,2.77987003326416,-1.13095909552602,-1.45702746607916,1.87154277855036,-0.0716491563250161,0.0090985912196731,0.072224552364617,-0.0742772436747706,-0.116934911372384,0.145238307602697,0.00937002940496955,0.18578338922505,0.188077587429081,15.3799703831374,1.09423243333648,1.14871830358229,0.177345215272602,0.240874573679695,0.186191365779797,0.518508636487488,0.156816725549145,0.0398512838275618,NaN,NaN,NaN,NaN,1.94546366280019,-126.251978914843,1.62264898123173,stable,stable,1,0.536693591765913,0.217614800244118,0.214756578550052,0.893704208002194,0.317248281875646
92,2.60970347682635,3,-0.464658674376638,-2.53651949641141,2.60970347682635,0.00555631104174082,0.00501493886080039,0.00748479820503779,-0.0197827534069481,-0.335392463451312,0.336600940119097,0.0217261961804334,0.197751080525184,0.20042516771702,15.4099037716283,1.64311402009941,1.49727140076667,0.0298574817549571,0.0667713472227975,0.111333822085072,0.540750333732186,0.0108925991108055,0.00478761917572506,NaN,NaN,NaN,NaN,3,-99.2513675644137,1.82548124342071,stable,stable,1,0.736005960697097,0.0891889307183282,0.0600954660188913,0.960396802244288,0.350518301295524
93,1.7036129674133,2.33036637306213,-1.03541853130611,-1.33337042628049,1.7036129674133,-0.0487619529314649,0.00052318382657787,0.0487647595606376,-0.0590069831314105,-0.0947565521908674,0.115070956611323,0.00742260877273217,0.133157831304071,0.135028458067684,15.4394771717562,0.928673508673312,0.993908299915905,0.177002498875501,0.240198636223524,0.173841176546372,0.427141399128408,0.159511512973938,0.0370227427961542,NaN,NaN,NaN,NaN,1.74681180591764,-126.657123786368,2.24316804085085,stable,stable,1,0.48130248292375,0.149959722190438,0.174332654642696,0.89639275063762,0.322737254868279
94,2.60451492680932,3,-0.232428515629469,-2.56490925906772,2.60451492680932,-0.0116103425184911,0.0154142177858549,0.01929762066542,-0.00932856500589169,-0.352220727652117,0.35262602558573,0.0227629118759186,0.197386454094343,0.199473505365852,15.4073809784154,1.71605289589021,1.38908592626795,0.0625231862517963,0.240448287804222,0.128789820094568,0.438191489660172,0.00192069857251863,0.0104398474525044,NaN,NaN,NaN,NaN,3,-94.2734617915732,2.43692654192051,unstable,unstable,0,0.734432014888989,0.0925220385898968,0.0601631751284934,0.944340887557145,0.34276007995797
95,1.80160828269258,2.55143022537231,-1.13819422771237,-1.37313410813137,1.80160828269258,-0.05265291851147,0.00778500584609148,0.0532253336654565,-0.0715862567012372,-0.102052800935108,0.129309608125053,0.00834012874490201,0.149647631294769,0.151721192108811,15.4449043074871,0.778950094137477,0.938023987271317,0.175805241633509,0.240235060505756,0.127401619048269,0.37230987996616,0.159472135740022,0.0347018864709802,NaN,NaN,NaN,NaN,1.86493072097439,-128.583435678336,1.60111611568106,stable,stable,1,0.51077311380645,0.178467914941608,0.190576121545937,0.898606868543605,0.343377058200769
96,1.71359918534756,2.69314622879028,-1.05361991458225,-1.32149210697773,1.71359918534756,0.00733883921970705,0.0023288777292205,0.00769949560493216,-0.0638584025803141,-0.096438403708766,0.121275020261522,0.00783366250744584,0.185433361666317,0.186355253151731,15.3250619135605,1.9936237029894,2.13023524389023,0.0242494493879355,0.0698732251330733,0.127728136443216,0.514489644840609,0.000202979839693612,0.00599378790500978,NaN,NaN,NaN,NaN,1.76269102467469,-127.19753908103,2.07645505739213,stable,stable,1,0.494230833389695,0.221809658968851,0.135355567881582,0.955473526437692,0.34323193935857
97,1.77165785471598,2.3523485660553,-1.09241747895858,-1.37912843557969,1.77165785471598,-0.053241520870116,2.74514038758288e-05,0.053241527947107,-0.064959644096407,-0.100590896244473,0.122651071141807,0.00791175580050483,0.128086170328037,0.130137712920914,15.4346020708649,0.896500351656286,1.02060407993372,0.175502552533938,0.240192397562771,0.156433069588759,0.459984662639558,0.157592569966864,0.033828754466842,NaN,NaN,NaN,NaN,1.81622668042125,-127.513201967813,2.17829491553273,stable,stable,1,0.498469637175112,0.140416356841649,0.166592321573154,0.897185760341967,0.330474191293885
98,1.8566994651052,2.67145156860352,-1.1769463442694,-1.42168254326013,1.8566994651052,-0.0364365049091251,0.0188340360781368,0.0410163358308035,-0.0745809424098219,-0.10823946616415,0.134315085015991,0.00866547863793206,0.124559671148893,0.126660089685835,15.3669791572684,0.825784987009484,1.26206789337072,0.175221979330404,0.240228723724139,0.187169694021984,0.488768181065566,0.159641966822457,0.0376436442014585,NaN,NaN,NaN,NaN,1.91962505408224,-128.853168090004,2.33914599187713,stable,stable,1,0.520451875298553,0.190838884856102,0.199143914059526,0.895984451988954,0.316813469323563
99,2.61617021282514,3,-0.157842039714929,-2.57868912593594,2.61617021282514,0.00534864936893488,0.00507707532738016,0.00737460127408254,-0.00560928228801802,-0.346910600138149,0.347201309951194,0.0224122662334491,0.197661504389428,0.200401858713449,15.4054957454592,1.80502524544949,1.57097213644801,0.0198379734380773,0.0501851521872575,0.113743384253073,0.489698380862737,1.1721839014425e-06,0.00988405282690348,NaN,NaN,NaN,NaN,3,-92.2002194325483,2.25601384004715,stable,stable,1,0.737725761829394,0.0877137123479255,0.056222949407343,0.963555319566052,0.349447384776412
100,1.6472210300212,2.40754675865173,-1.03961726469744,-1.26555697273998,1.6472210300212,-0.0421099053744683,-0.00345839217578274,0.0422516817072195,-0.0586638913030296,-0.0847891697969851,0.105239313057328,0.00678879192655794,0.104925180254956,0.106743354652669,15.4007894500793,0.991431941008136,0.997201750830961,0.177136040925036,0.24017678996412,0.153830292520883,0.436183314030384,0.159553463283429,0.0350485849103851,NaN,NaN,NaN,NaN,1.68546986904653,-128.540481584722,2.4019577309531,stable,stable,1,0.460607612269521,0.178819430588193,0.19094924866852,0.895807000530175,0.33163098110183
101,1.65727649862263,2.37771534919739,-1.06560292139505,-1.24590582208046,1.65727649862263,-0.0498688577174092,0.0108990234813962,0.0510459761674437,-0.0627495736517561,-0.0843083599682275,0.109448704710039,0.00705827098140283,0.152720371043632,0.154498024111041,15.4599780137996,0.68507311803667,0.78434978504518,0.17633485362685,0.240186383526284,0.137809939450768,0.449268716370699,0.159480910559987,0.0361732248796477,NaN,NaN,NaN,NaN,1.69807149429304,-129.55767099295,1.94562361592337,stable,stable,1,0.472840004454911,0.171457170343351,0.186908606855574,0.900287107519503,0.338751138021881
102,2.62585231304169,3,-0.153088422134281,-2.59007366984716,2.62585231304169,0.00678044363340294,0.00359305522655434,0.00767362116127868,-0.00539229997216198,-0.348738461725102,0.348997365933132,0.0225355452011011,0.195531018489286,0.198398684138038,15.345254540674,1.97084694856851,1.71820149137568,0.0306134248027369,0.0675671813309002,0.121607307171467,0.522545776158934,0.0119029086435436,0.00577192307387193,NaN,NaN,NaN,NaN,3,-91.8482151525671,1.7926311438994,stable,stable,1,0.739907020305391,0.0855900601118549,0.0587430988042373,0.95570790699907,0.345952307923793
103,1.71665268852597,2.33923697471619,-1.07901262590431,-1.32135128531931,1.71665268852597,-0.0380243145419767,0.0161242797101574,0.0413018267460238,-0.062573376408215,-0.0926292000645145,0.114336400266629,0.00737400770704259,0.11504949655774,0.116996446159896,15.4426674962515,0.76123779516014,0.851134360122737,0.177271471959945,0.240192088554104,0.123573459000761,0.388527787885859,0.159568581987461,0.0374621284884172,NaN,NaN,NaN,NaN,1.75398132014352,-128.600052606655,1.9587596697157,stable,stable,1,0.481173339505572,0.147653465962903,0.173134041527553,0.89869562565709,0.345078462666329
104,2.64238201131188,3,-0.359122642601337,-2.58584317827801,2.64238201131188,-0.025677291313513,-0.000689935135770479,0.025686558735856,-0.0143894322277511,-0.349746814341309,0.350492337624689,0.02263275076811,0.1997672265908,0.201851975608452,15.3725579254527,1.8728276332044,1.61841718882054,0.0627314509371208,0.240299971169675,0.132013839384488,0.494688252490865,0.00188718304175622,0.00855499324224004,NaN,NaN,NaN,NaN,3,-96.2939600424606,2.14859541478874,unstable,unstable,0,0.745005598138191,0.0851732498897342,0.0550536045859407,0.941203065215529,0.341327182495783
105,1.75047209635884,2.4848153591156,-1.1249296213424,-1.32623718050085,1.75047209635884,-0.0402190415318623,0.000946707817957195,0.0402301821700356,-0.0685105534082018,-0.0935246252429316,0.118769896642959,0.00766129668736529,0.120069246626452,0.122010721415378,15.3709052915474,0.920638178333032,1.00182820439199,0.177648928596488,0.240212779240968,0.163196355251688,0.487328412733199,0.159486106440592,0.0355162640959507,NaN,NaN,NaN,NaN,1.78074250763471,-129.221424924807,2.01321510287916,stable,stable,1,0.491194703312099,0.172602767518111,0.187359379610263,0.896070442694631,0.327468286554805
106,1.83734595179558,2.54631090164185,-1.06910882227556,-1.48041990731361,1.83734595179558,0.00358870065201157,0.00191086510836905,0.00406573213974193,-0.0615375871207747,-0.115349231867071,0.133141974541449,0.00859506724764712,0.128779408378289,0.129837635796876,15.3778464554147,1.75401596109289,1.75183547098693,0.0309527831149751,0.0742466014756902,0.114337392290795,0.51209451568946,0.0127057468918545,0.00634795613786905,NaN,NaN,NaN,NaN,1.88415857146299,-124.959215831678,1.77959162543827,stable,stable,1,0.515926447638196,0.16026249794103,0.104112845069718,0.956977632904742,0.349183381204091
107,1.69162150467334,2.29336214065552,-1.01546471822342,-1.33930356046755,1.69162150467334,-0.0377510945816026,0.0109992099147951,0.0393208311313333,-0.0557601652983147,-0.0948546012780812,0.112387900822615,0.00725204235465106,0.114157469232531,0.116032701847891,15.3618459960401,1.07602897431639,1.19620139461633,0.177289061275281,0.240182762521712,0.146434523665422,0.467628721344348,0.159473271870359,0.0367791030073508,NaN,NaN,NaN,NaN,1.72726488943798,-126.550224489005,1.82628782171596,stable,stable,1,0.474305608282469,0.142600462136734,0.1698115062776,0.893502230749316,0.334917989482035
108,1.6927958463325,2.6005482673645,-1.03784533207211,-1.30802168178807,1.6927958463325,-0.0536617983945209,0.0151314236983952,0.0557543593817969,-0.0620462406081299,-0.0946904925716578,0.118763850045931,0.00766084369881044,0.171161705415698,0.173061909569279,15.4518561186806,0.897238559320841,0.947210649788711,0.177409646402732,0.240248860077402,0.156370506864481,0.394214092064941,0.159522240549597,0.0369892814239006,NaN,NaN,NaN,NaN,1.72684939224008,-126.925173742408,1.95201629893706,stable,stable,1,0.486024607602522,0.21446592728553,0.213028977739426,0.896803075869916,0.33050199694912
109,2.62082505106926,3,-0.312345213062473,-2.57084617517654,2.62082505106926,0.00336072069388578,0.00754019880692174,0.0082552432811042,-0.012283087657208,-0.343645414419035,0.344217728126553,0.0222402854321973,0.191616293416716,0.194391465281363,15.4060174851594,2.55723390207696,2.21033066797356,0.0176464133841102,0.0530763754679747,0.152692172643606,0.487915575187569,0.000136232556523398,0.00676622607225187,NaN,NaN,NaN,NaN,3,-95.4171668207032,2.38227071942673,stable,stable,1,0.737764973341408,0.0868278247776191,0.054617688513926,0.953717357400405,0.332136812158397
110,1.64363478762763,2.46000552177429,-0.961676195120979,-1.31408504507638,1.64363478762763,-0.0510365955044835,0.000374667896262122,0.0510379707347457,-0.0516496058843879,-0.0926269174015973,0.109193336230134,0.00704259976616848,0.13951403038701,0.141316148641578,15.4686811050998,0.75498062083993,0.911361060171269,0.176923425150207,0.240199847212357,0.145347052725118,0.393287025254203,0.159598435858567,0.0388695318922827,NaN,NaN,NaN,NaN,1.65985778043302,-125.136897277648,2.09266041338066,stable,stable,1,0.46656583976235,0.193040376484369,0.200891239283542,0.89844560278838,0.335401309899948
111,1.53593305908904,2.11411881446838,-0.92615451219961,-1.21290125681043,1.53593305908904,-0.0360288133486316,0.00749926177781873,0.0368010097486847,-0.0463777873608059,-0.0778667958563269,0.0925615523344088,0.00597088409012165,0.0983862374979916,0.099914181432947,15.4438859514489,0.889497422080394,1.0203240851307,0.177233919951429,0.240167166869589,0.156684297453708,0.439517619950193,0.159521433411576,0.0350048680411347,NaN,NaN,NaN,NaN,1.59306398738573,-126.486183134521,1.51079119783705,stable,stable,1,0.429564985377,0.136838646747612,0.165730645822205,0.896377299610484,0.330362534465019
112,2.62327625274658,3,-0.247432576755675,-2.57632604505324,2.62327625274658,0.00597519152931948,0.00472952256721064,0.00762045258011662,-0.00991154770188455,-0.34513595604042,0.345609865038608,0.0223324846143721,0.201647737448596,0.204470028329695,15.3595332552228,2.50606240193067,2.04111532970686,0.0245658751190684,0.0748501036693799,0.141914278593552,0.507057661157567,0.000208667974137349,0.0052159535306031,NaN,NaN,NaN,NaN,3,-94.1056534981467,2.0796908512461,stable,stable,1,0.740434339731694,0.0861599261050404,0.0536854073596278,0.951989237406171,0.336926987291755
113,1.71067522172214,2.47241687774658,-0.993724690818194,-1.36492288712038,1.71067522172214,-0.0629588377574409,0.00963113386889716,0.0636912395182287,-0.0573922632188171,-0.102144354977225,0.121990944790373,0.00786710741899446,0.174245145313856,0.176187487892658,15.4653350944285,0.668254602805913,0.845114974215531,0.176507643095545,0.240253147016276,0.139950017426143,0.383996277046973,0.159556165185879,0.0379466979095148,NaN,NaN,NaN,NaN,1.77528590773906,-124.910768203071,1.94680964508008,stable,stable,1,0.491417556704436,0.183068599850508,0.194553810343852,0.899855417489916,0.337799992255047
114,2.66567015193758,3,-0.435845811813023,-2.59662563544992,2.66567015193758,-0.0290752051693696,-0.00385154361973484,0.0293291995099706,-0.0175880080841557,-0.350754759878903,0.351750276483735,0.0227035960743109,0.198503803320174,0.200608946392226,15.3397187011447,1.6471390488982,1.29401064369185,0.0623982835629984,0.240494854083142,0.112920385328321,0.500305105897169,0.00191226060087211,0.00706879495763478,NaN,NaN,NaN,NaN,2.9979851142919,-97.9705526263991,2.11937534214715,unstable,unstable,0,0.750967163128465,0.0806012357242068,0.0517811059285971,0.945691824919579,0.349813162076302
115,1.85610571929387,2.57531356811523,-1.0302798446713,-1.52812845180112,1.85610571929387,-0.0489665321243735,0.00443651332699614,0.0491671019970459,-0.0578866634769171,-0.123690041741355,0.139250459325942,0.00898492158350384,0.130560227635648,0.13283629665596,15.3740689217699,1.16261600869545,1.17308122574394,0.17744064151488,0.240232614462645,0.150624570523848,0.494890683133056,0.159540526515758,0.0380592792541805,NaN,NaN,NaN,NaN,1.89315516909655,-124.179562229341,2.25785681021659,stable,stable,1,0.521528784476223,0.170835734684266,0.187248079394841,0.892927772400536,0.333055746433845
116,1.66124188601971,2.43528604507446,-1.00800951423846,-1.300717051972,1.66124188601971,0.00584594781149151,0.00238513928287855,0.00631379404268248,-0.0560274993858617,-0.0900721961358161,0.109481529878658,0.00707052213294647,0.131649901897956,0.132518554036984,15.4214256973837,2.0581908331827,2.04706237211752,0.0293299630608076,0.0571683541434638,0.140371208232343,0.461544823421834,0.00719780455392072,0.00560635936620139,NaN,NaN,NaN,NaN,1.69700248239393,-126.66944677606,1.89678114319083,stable,stable,1,0.469501547079319,0.175317464695145,0.110428179196438,0.953079457570809,0.337612796341181
117,1.61524298158633,2.2282178401947,-0.945924723591034,-1.29577064205352,1.61524298158633,-0.0340809294554921,0.0161174660470681,0.0376999000572764,-0.0489465910591236,-0.089316277282476,0.103986509568564,0.00670692359955749,0.107142746747911,0.108786609461443,15.4584983348539,0.818127145573043,0.902549879064523,0.176553115870531,0.240168061485496,0.142366023201464,0.382574483544939,0.159606510520377,0.0364740017472152,NaN,NaN,NaN,NaN,1.6721231422542,-125.43586516234,2.31423570192064,stable,stable,1,0.452488783648642,0.144830991530719,0.171098095179,0.898203836871154,0.33672621191046
118,1.69493875252146,2.57358741760254,-1.06350404844378,-1.29135090168669,1.69493875252146,-0.0673656750840127,0.00578276351575482,0.0676134197730296,-0.064836486462857,-0.0924446967734491,0.118331564902325,0.00763258189982016,0.175520024945849,0.177399422443731,15.4437895117357,0.746836149471549,1.07964799115134,0.176294159722131,0.240237461178278,0.168636073399048,0.434158327374633,0.159402583163522,0.0361593852904568,NaN,NaN,NaN,NaN,1.78141492798702,-127.597402747289,2.32565713551162,stable,stable,1,0.487463551827803,0.210091743268298,0.210049505856447,0.897501973319754,0.325050634044867
119,2.56545409997304,3,-0.360615461448209,-2.50505442687308,2.56545409997304,0.00437556609312684,0.00699115336781894,0.00824753320985659,-0.0154289298641055,-0.328104449251775,0.328989041682654,0.0212498040894711,0.204273696359912,0.206894683675623,15.2850326688755,2.17327676775559,1.83298981365139,0.0301021295349512,0.0787404200876175,0.129633841955195,0.536379383142508,0.0103999290790155,0.0061655195538879,NaN,NaN,NaN,NaN,2.88139783872518,-96.8469577847742,1.83363946936818,stable,stable,1,0.725500030061269,0.0992848752612058,0.0664351229690128,0.953471126378612,0.342384959131024
120,1.70110163721098,2.55387306213379,-0.999421298666417,-1.34667589309384,1.70110163721098,-0.0642841214482996,0.014575563826865,0.0659158200377629,-0.0578677759559378,-0.10001300223571,0.120796901014585,0.00779488820178308,0.175951887955123,0.177892075148849,15.349651396851,1.1463906238551,1.28163205333418,0.177010955179013,0.24024638005136,0.172156256507123,0.472393696979226,0.159546528815732,0.0376122028140174,NaN,NaN,NaN,NaN,1.76744363452008,-125.864521808831,1.5,stable,stable,1,0.48920551828603,0.203958137614556,0.206961615590924,0.892417201375435,0.323486108219057
121,1.7118265036823,2.44206237792969,-0.988858520145867,-1.38480762217277,1.7118265036823,-0.0480169969832522,-0.00122001082960888,0.0480324934363605,-0.0532276428292297,-0.101959100554768,0.117094264869106,0.00755151219337231,0.125126798487323,0.126980616689406,15.4592284400414,0.704612682104144,0.846364641947008,0.176678376659788,0.24020752142996,0.135090314649059,0.480549326081267,0.159536004180071,0.0368503771611727,NaN,NaN,NaN,NaN,1.76448514358837,-124.664357217421,1.99520099496198,stable,stable,1,0.481883190986494,0.173109028835662,0.188170445197613,0.899474561266847,0.339959860155974
122,2.63161179373496,3,-0.382855631523248,-2.57206535088678,2.63161179373496,0.00681540502853857,0.00465697815199726,0.00825452549885265,-0.0156480820110199,-0.344000600730805,0.344801720961998,0.0222756198538349,0.194430805145114,0.197225220191942,15.3941483187454,2.40702670654897,2.20063522173681,0.0261467304826846,0.0723241713587214,0.155646477500433,0.506461649704337,0.00701464336274208,0.00630006264445983,NaN,NaN,NaN,NaN,3,-97.1526305433791,1.96122965255697,stable,stable,1,0.741208189034377,0.0844006760844247,0.0560489567936973,0.950723576750698,0.330823787777585
123,1.63308395783106,2.25048851966858,-0.939414133133561,-1.32365800564494,1.63308395783106,-0.0425914575868254,0.00818114304590446,0.0433700744858468,-0.0477028081784069,-0.092776880369724,0.106200299242599,0.00684966595185464,0.11329013384993,0.115002134774853,15.4289634361914,0.867392349283058,0.753260293609955,0.174894862446284,0.240164704083911,0.120271934123185,0.379694066395786,0.157250050496514,0.0409122271083509,NaN,NaN,NaN,NaN,1.66518818535526,-124.488998271363,1.60527466318368,stable,stable,1,0.458489482376588,0.146867206735846,0.172886408867237,0.899818869439841,0.346545807056362
124,2.61524338180117,3,-0.505796505577188,-2.53283555053495,2.61524338180117,-0.0105834901368762,0.0117139045139428,0.0157868876742417,-0.0237679303452442,-0.340132846887505,0.341820462734923,0.0220662986787023,0.195811195033791,0.197778884954575,15.403016702549,1.74105812136756,1.4481911396642,0.0625441715844137,0.240476583339913,0.134621985144169,0.422541683041678,0.00194093777637513,0.00528003836338879,NaN,NaN,NaN,NaN,3,-100.530616564359,2.37321004723243,unstable,unstable,0,0.736954012137894,0.0894645018350141,0.0564613540630539,0.943669527156829,0.340168006602591
125,1.57396678697495,2.17621517181396,-0.822757024019988,-1.32831413184497,1.57396678697495,-0.0387584191584234,0.00174065786629011,0.0387974863292394,-0.0371358908387529,-0.093289964323448,0.10209482913702,0.00658513498435945,0.108104628895749,0.109794749107805,15.4341673018186,0.799650569150818,0.953168503337378,0.177628133155739,0.240172865502168,0.14937691852789,0.431151629892744,0.159226594359768,0.034945644353818,NaN,NaN,NaN,NaN,1.59718321662841,-120.692341177793,2.34672275791723,stable,stable,1,0.441683426348215,0.142618759082472,0.169046137758243,0.897413783566866,0.333610258432049
126,1.55868987341722,2.41032743453979,-0.872674242003038,-1.27823944843321,1.55868987341722,0.00293528091591235,0.00124011784393376,0.00318649750073057,-0.0417267810751547,-0.0862555697428813,0.0977273265485428,0.00630666066234303,0.110699238496246,0.111480920555201,15.4318511839428,1.57132731748786,1.43241050852856,0.031093226823077,0.0518558611816637,0.104429807891382,0.431538262257579,0.0266116026484,0.00482360094784662,NaN,NaN,NaN,NaN,1.57811714801433,-123.111297136965,1.59469274957341,stable,stable,1,0.437946817022298,0.192202642461047,0.12890300113978,0.960852589384047,0.353586752048275
127,1.5074932015672,2.1306209564209,-0.74741003554267,-1.2931721447477,1.5074932015672,-0.0464186057906079,-0.00334679429044358,0.0465391017915731,-0.0317656984088058,-0.0892249648878009,0.0964460023946189,0.00622322169760569,0.118846737877054,0.1204108612221,15.3668170525491,1.05840173636189,1.13978259622892,0.176995299985258,0.24015846263277,0.142695106518011,0.44690565657222,0.159600066730133,0.0362197129401985,NaN,NaN,NaN,NaN,1.53181850141805,-119.504479623187,2.42569842391289,stable,stable,1,0.426080359329007,0.14873591350387,0.173345715799019,0.894230901679872,0.336579952658662
128,1.62860481998547,2.30308032035828,-0.868039571243567,-1.35973557915609,1.62860481998547,-0.0491151552685573,-0.00645006790204905,0.0495368736699798,-0.0423297684350438,-0.0992173335183072,0.110389346137274,0.00712270135411423,0.133547310962898,0.135256524275951,15.3678307280833,1.0885804565284,1.15878719322462,0.17673994128482,0.240176837878829,0.16203495283275,0.490742243768466,0.156734711885389,0.0401474549680697,NaN,NaN,NaN,NaN,1.67347133841587,-121.814224359451,1.75766509359707,stable,stable,1,0.461345923517983,0.16083874775671,0.180762195136931,0.893972140680959,0.327984465407667
129,2.61644177873929,3,-0.518401525238102,-2.5320000596711,2.61644177873929,0.00421905247955327,0.00259255779994873,0.0049519450493013,-0.0229748185536008,-0.333623901266486,0.335225812111753,0.0216371740493646,0.196803151031107,0.199394508315589,15.4250016489954,1.67723118705035,1.64109858443896,0.0182729089993899,0.0481691136738973,0.112708533395734,0.429738770648346,0.000147296025093972,0.00378271310783873,NaN,NaN,NaN,NaN,2.98812679975473,-100.15154225882,2.30446534307627,stable,stable,1,0.737596709326929,0.0872084563760309,0.0537660707648744,0.964790954438603,0.349907318490785
130,1.62521669694356,2.33391857147217,-0.902908727745198,-1.33723995928383,1.62521669694356,-0.0491216062638706,0.00143058287085823,0.049142433489736,-0.0448689953098833,-0.0950662872895635,0.107176288330292,0.00691275851931417,0.107080742327363,0.108842163012186,15.4512415760644,0.908709984961673,0.83114954062802,0.177039988611534,0.240183480892776,0.117400827235495,0.400195248698535,0.159492097801755,0.0361235633719681,NaN,NaN,NaN,NaN,1.67291748571223,-123.514973806059,2.25276831271293,stable,stable,1,0.455159551787385,0.168467367908723,0.185101638772184,0.897809680850314,0.347821854562002
131,1.51648802213928,2.15952229499817,-0.760549353663735,-1.29585048200181,1.51648802213928,-0.0416254160156342,0.0116069133702537,0.0432133740462277,-0.0327625707898285,-0.0899417880258892,0.0975822663011741,0.00629393003729568,0.124804402322514,0.126328155881273,15.4615223890631,0.806018784652506,0.884126464572856,0.176681939209828,0.240183323971184,0.144480425188823,0.412856283503661,0.159588897161942,0.0375575036695154,NaN,NaN,NaN,NaN,1.54515709711904,-119.107877075441,1.95213806295928,stable,stable,1,0.429662437080063,0.152605163301724,0.176148770781317,0.898379317722601,0.335786477693857
132,2.62164450804393,3,-0.446145922473054,-2.54859317536171,2.62164450804393,0.0058432827237335,0.00531738227181069,0.00790053841292155,-0.0195207505711426,-0.338130107400835,0.339339049208073,0.0219069505165566,0.201372894141356,0.204040986318592,15.3936727082511,1.72253979897118,1.8782998106162,0.0164050181099648,0.0560514409863275,0.122231537967642,0.444474321413912,0.000277970535281358,0.00783432250946073,NaN,NaN,NaN,NaN,3,-98.8062245222683,2.38759995493887,stable,stable,1,0.739913399408765,0.0865784177324858,0.0549194376485114,0.963505179726831,0.345674872014381
133,1.63605761690205,2.34129643440247,-0.84576702335986,-1.38337905082198,1.63605761690205,-0.0459847415846406,0.0059419891367334,0.0463670539662294,-0.0399499481909227,-0.10175662795373,0.111510777514908,0.00719335893328396,0.12412002325297,0.125990460240587,15.4140226320026,1.01481270745292,0.917148046615974,0.176831961928108,0.240182972787668,0.13271193622,0.404488922310978,0.159537076225789,0.0369160520772392,NaN,NaN,NaN,NaN,1.68330103474598,-120.509023497779,1.81577509393782,stable,stable,1,0.461480123221996,0.16717936049807,0.184637002447482,0.896404327396833,0.341016917235555
134,2.67370786386378,3,-0.617321483338711,-2.56877896807374,2.67370786386378,-0.0209131039333787,-0.00958949831840184,0.0230068771050513,-0.0274763206271905,-0.337319868813441,0.339572378014904,0.0219119710409758,0.203692939154745,0.205742605619679,15.419532481891,1.52422014498022,1.13343878503309,0.0630761819463265,0.240430653281849,0.109979816092943,0.450083698390223,0.00189300326670834,0.00673883734781429,NaN,NaN,NaN,NaN,3,-102.269542710179,1.7802193344918,unstable,unstable,0,0.754137284820943,0.0776336580999096,0.0498720159534456,0.947580303148161,0.35112008173647
135,1.65876207708501,2.33868432044983,-0.852699428809386,-1.41053681670005,1.65876207708501,-0.051300798539526,-0.010787426175673,0.0524227097190581,-0.0404240065401731,-0.105230932786437,0.114365450307226,0.00737559692710281,0.114530810838331,0.116317130920981,15.465114366027,0.784784337205254,0.807108596615301,0.177677123404152,0.240183135015181,0.149335317559601,0.44351761906794,0.159576740017691,0.0362019996325458,NaN,NaN,NaN,NaN,1.71044333906111,-120.370167332204,2.09443953306395,stable,stable,1,0.465599980073534,0.162593334872244,0.181643359989508,0.898653708103619,0.333628747751288
136,1.61634251137575,2.394122838974,-0.756471378849774,-1.41117996665092,1.61634251137575,0.00521416838954999,0.00264626199515544,0.00584724332840582,-0.0328090414521801,-0.106076039343053,0.112820970514399,0.00728557514223374,0.13840127906757,0.139213993855001,15.3467568401071,2.06572176777975,1.81214371675309,0.0248442018388926,0.067686893710471,0.122733050810789,0.471665353776248,0.000739655383657856,0.00581224851342352,NaN,NaN,NaN,NaN,1.66149639163359,-116.91481150861,2.04996357464238,stable,stable,1,0.458867468471199,0.176072568319815,0.108085821631931,0.957108955987796,0.345451977417427
137,1.45560339397314,2.06886458396912,-0.698644949692152,-1.26749895674007,1.45560339397314,-0.0281345233553425,0.00931467345605509,0.0296363720118582,-0.0270939071625489,-0.085143695797966,0.0903279500683894,0.00582642903377763,0.102853517279827,0.104357629446793,15.4356458266202,0.823280631955326,0.92746216799941,0.176854589017062,0.240150048756368,0.140379458504483,0.455166547895396,0.159471271201442,0.0368082012805466,NaN,NaN,NaN,NaN,1.50463962214456,-118.009747287404,1.67675249757567,stable,stable,1,0.409032430948862,0.143417102617936,0.170311182570389,0.89781686920611,0.337609129553563
138,1.61006353825939,2.2010509967804,-0.725864419815922,-1.42641285734773,1.61006353825939,-0.0366417900260588,0.0077278715202175,0.0374478407194162,-0.0294325905678405,-0.107217134973783,0.112256808295172,0.00724111315915629,0.0978546750321189,0.0995920176212083,15.4104008644368,0.865706371514441,1.00608275876676,0.176939008243747,0.240179188999497,0.149763824051169,0.441435215415436,0.159534993889687,0.037451801320388,NaN,NaN,NaN,NaN,1.62198882751374,-116.427624599585,1.88745449042725,stable,stable,1,0.449268680393412,0.139837615632453,0.168425847951999,0.89682358128306,0.333438300421703
139,2.62838978608449,3,-0.524098323609697,-2.54229006461072,2.62838978608449,0.00811626305058817,0.0074458890485654,0.0110143084045204,-0.0234661784792908,-0.335783769524168,0.337479329030329,0.0217919051117307,0.194589332156682,0.197237160113351,15.4045623912357,2.05052158367272,1.84519437008869,0.0227578620745811,0.0570060369926603,0.131695421763583,0.438523166098157,0.000252838547643954,0.00617996773258475,NaN,NaN,NaN,NaN,3,-100.33835635475,2.13062850796956,stable,stable,1,0.740351374978535,0.0856315880051512,0.0537385864845996,0.958011872183156,0.341468701438408
140,1.58553574604242,2.2287962436676,-0.740131402361144,-1.38962263118886,1.58553574604242,-0.0394693985459975,-0.00789183138891802,0.0402506450166193,-0.0306637471439158,-0.10264497125174,0.108424649916131,0.00699217941012629,0.116665880544382,0.11838404631766,15.4704039202828,0.793806212031717,0.702206728746004,0.176327637137789,0.240179487396872,0.131983374749305,0.400216314883931,0.159565954354571,0.0353244983852566,NaN,NaN,NaN,NaN,1.62484937329115,-117.662804067615,2.34270178954556,stable,stable,1,0.446486341541511,0.15211289688538,0.175031212206686,0.90008179403928,0.341340722333642
141,1.52647983379105,2.1778576374054,-0.757084376448277,-1.30803886774587,1.52647983379105,-0.043620157857013,0.00378586477877647,0.0437841403203707,-0.0324825113098616,-0.0910869592052456,0.098618776999963,0.00636185094484487,0.119356330809779,0.120969558772898,15.4143032586,0.961405703955793,0.957987086044618,0.177247612401292,0.240187792084221,0.148651757906079,0.482287487103453,0.159578274147193,0.0362946139905399,NaN,NaN,NaN,NaN,1.58700801541868,-119.377240163094,1.99331919388761,stable,stable,1,0.431255200765525,0.154587098205297,0.176873977773036,0.896295250449351,0.333932552041743
142,2.6263066526254,3,-0.622995144924533,-2.51887339493939,2.6263066526254,0.00584568596304974,0.000190436812463671,0.00584878710145429,-0.0292283147250985,-0.330181169367879,0.332700029363575,0.0214772281039703,0.199485463858939,0.20213046597402,15.4175134880485,1.87848063844086,1.68438134181387,0.0162369089376,0.0512016653287029,0.122039777605624,0.419939084752616,0.000198176574973995,0.00660738623305089,NaN,NaN,NaN,NaN,3,-102.460692774955,2.38009271827167,stable,stable,1,0.740774533894911,0.0851532807945512,0.0535827328574245,0.963887629972056,0.945760098841945
143,1.47735120033896,2.12620711326599,-0.650198465381338,-1.31392435056194,1.47735120033896,-0.0394498531658271,-0.00405035752909314,0.0396572352909125,-0.0239377307503583,-0.0917884985219845,0.0958925582330092,0.00618373843135345,0.10195661906232,0.103386705018839,15.4775776838671,0.802942786657614,0.547995681593663,0.175761552249041,0.240164712109743,0.111513540869993,0.374286016905467,0.156667028698539,0.0402463076415279,NaN,NaN,NaN,NaN,1.50542716708844,-115.316950545559,1.55837282971428,stable,stable,1,0.414637661094156,0.15326307354525,0.17622265562039,0.901504707339219,0.350438426280003
144,2.67973497852428,3,-0.571000120877748,-2.58081345254749,2.67973497852428,-0.0303436129990229,-0.00652238277767834,0.0310366932345092,-0.0241395238277977,-0.341893751581806,0.343723462674223,0.0221818282459638,0.203345889765373,0.205447147628729,15.4323553864198,1.55209891516061,1.32090005418714,0.0628068215199196,0.240470528226743,0.113699032012629,0.433484316701319,0.00185040432189129,0.0069089224525277,NaN,NaN,NaN,NaN,3,-100.955060334027,1.79035101180714,unstable,unstable,0,0.755685423798887,0.0777496902583636,0.0499845515131415,0.946023025909451,0.349467096883276
145,1.62628983640346,2.31982398033142,-0.741648442000309,-1.43000904924401,1.62628983640346,-0.0505305717644739,-0.0114418113079026,0.0518097841034905,-0.0320130786226159,-0.109487778968156,0.115767453950453,0.00747050411282294,0.127969519545418,0.129743041095567,15.3393927093235,1.18420798523168,1.17817898594021,0.176711161546482,0.240172853646825,0.162618402509795,0.51108371516568,0.156756598890573,0.0420644029319645,NaN,NaN,NaN,NaN,1.68254359450145,-116.590495520199,1.53109543824904,stable,stable,1,0.459625897926704,0.165543642802764,0.184291931709294,0.893082807310409,0.327725154440091
146,1.72970419069131,2.51390862464905,-0.822341191360379,-1.50417364377401,1.72970419069131,0.00250601691022415,-0.00397366826556427,0.00469788891302061,-0.0384160714770637,-0.119743366917784,0.127774827525072,0.00824946893135478,0.138588397928752,0.139556916927299,15.4149994615469,1.78238594052488,1.86673452612472,0.0165801621491323,0.049943807582223,0.127893324903386,0.422786620958684,0.00025355956141612,0.00544114518050317,NaN,NaN,NaN,NaN,1.779143412243,-117.297381887505,2.375008614173,stable,stable,1,0.489165834236477,0.177307277274544,0.108475657750589,0.963038258116044,0.343158522265162
147,1.42805503884951,2.0594437122345,-0.703784704655986,-1.23295737389397,1.42805503884951,-0.044486011752361,-0.00606928892829182,0.0448981236771236,-0.0275633896684441,-0.0810551408124335,0.0865910436686586,0.00558446785824982,0.099014659639076,0.100299448256224,15.433453491602,0.639673842202631,0.877110083584506,0.175295781753517,0.240127823331319,0.128463841784113,0.450969757923149,0.159221567477589,0.0338755640100933,NaN,NaN,NaN,NaN,1.48754464037965,-118.732441752547,1.53058827212917,stable,stable,1,0.400874566677782,0.150293774185761,0.173259792525368,0.900434521134914,0.342904959207061
148,1.71719402994886,2.51648497581482,-0.768560264293952,-1.52389551717793,1.71719402994886,-0.0539088577580195,-0.00183948395522615,0.0539402321648314,-0.0333434607841265,-0.123724815662535,0.129323529589823,0.0083426944684245,0.131217134207199,0.133354773698977,15.3406868685827,0.917828435431028,0.971356121293734,0.175686788976334,0.240215411759526,0.148701080456524,0.453120145754431,0.159555341054839,0.0375654833721853,NaN,NaN,NaN,NaN,1.75445964810256,-115.915142708198,2.07663333530812,stable,stable,1,0.484589362726157,0.189729505383394,0.198411363915002,0.897313012566138,0.333910630908211
149,2.56852111975352,3,-0.595369540250701,-2.46640498783519,2.56852111975352,0.00517969907280411,0.00504710623121254,0.007232051147078,-0.0274751377008151,-0.318222105734275,0.320479239147601,0.0206854066342504,0.204124177220851,0.206575840727407,15.4243288885877,1.76071197288887,1.497525182869,0.0309723840357772,0.0537466450469784,0.113071818739604,0.403744942942698,0.0168974588566038,0.00694948196220413,NaN,NaN,NaN,NaN,2.89228411426449,-102.374592577792,1.73881876093528,stable,stable,1,0.726254133413087,0.0984086240990891,0.069082240523392,0.958913373186871,0.349745858337954
150,1.50972253366097,2.18376278877258,-0.652514736103523,-1.34617452601892,1.50972253366097,-0.0491657262775667,-0.00381424923327749,0.0493134579766433,-0.0248527583768075,-0.0967611244203753,0.101152209950175,0.00652357655321891,0.122502169406187,0.124125986786297,15.4680594331805,0.824992239942595,0.704279574523221,0.175387552422492,0.240161239325807,0.136015719332309,0.38774232444148,0.156582007492937,0.0402736008352819,NaN,NaN,NaN,NaN,1.57055207434036,-114.528428258895,2.10598163427024,stable,stable,1,0.427417873000184,0.160699858029165,0.180656863905977,0.900290516675094,0.339548569185641
151,1.50806443139809,2.10158371925354,-0.668444563978557,-1.34066755167993,1.50806443139809,-0.0343607407687043,-0.00726793462859932,0.0351209820469145,-0.0251971959588846,-0.0949402003555809,0.0991781363778498,0.00639717703556541,0.105989687923807,0.107591651035935,15.4476557728506,0.90104320193653,0.872901052518737,0.176464450519867,0.240123666619391,0.144236696448675,0.466772450058672,0.159593457288625,0.036051017345027,NaN,NaN,NaN,NaN,1.53043490962982,-115.371127707452,2.03023258249127,stable,stable,1,0.423668845246679,0.139980686476077,0.168028298199994,0.897829641312204,0.335894801578367
152,2.61883224328359,3,-0.657166098624491,-2.50200053716536,2.61883224328359,0.00310554287546007,0.00232332461591902,0.00387843187670688,-0.031717495912164,-0.326012657481155,0.328865208702198,0.0212293170354602,0.199804000789991,0.202383331111649,15.3973227816065,1.86274260664095,1.68412643455784,0.0174272907875806,0.0691957568850924,0.117299651086471,0.479486575552745,0.000501751316426576,0.00968683578312852,NaN,NaN,NaN,NaN,3,-103.235441300153,2.36466087241933,stable,stable,1,0.738831931097954,0.0864737911052553,0.0556297609875511,0.963418097853934,0.347866821739346
153,1.4868116026022,2.10716962814331,-0.705388666145867,-1.29332798359575,1.4868116026022,-0.0476197268039296,0.00161073185633483,0.0476469604276486,-0.0284561817437241,-0.0889628244476085,0.094943142849397,0.00612601128462112,0.116569841377981,0.11812735594757,15.3535729727884,1.08468432859699,1.09476563099937,0.177383805837201,0.240171755184275,0.154146872808981,0.461030524197035,0.15950752459986,0.0371927403320264,NaN,NaN,NaN,NaN,1.53053947457772,-117.277382087191,1.87070568003727,stable,stable,1,0.420108565216767,0.148315831825152,0.173406365098594,0.894183847398857,0.331490278751564
154,2.61258952201799,3,-0.630448365147631,-2.50340879883685,2.61258952201799,-0.0163656439522644,0.0132114082435038,0.0210327271115471,-0.030713277623939,-0.334245476272175,0.336988979306941,0.0217662075195936,0.197228827302562,0.19921476457077,15.3549205121543,2.01991546455089,1.76224035180659,0.0626945463028662,0.24049499455133,0.130963569742357,0.47102894270153,0.00194388938837821,0.00916084896558061,NaN,NaN,NaN,NaN,3,-102.931426400997,2.34495984028135,unstable,unstable,0,0.736533492118951,0.0910233575164028,0.0588091831547865,0.938935788291473,0.341793969003397
155,1.61537915387121,2.44001126289368,-0.769604478733036,-1.39522586143885,1.61537915387121,-0.0627099085917514,-0.00654124313067957,0.0630501427221261,-0.0360029014147475,-0.106739127081315,0.115535705780408,0.00745288789888962,0.167130284948317,0.16894381159181,15.3961990996342,1.00295507414983,0.945502334032103,0.176426400104512,0.240210699142414,0.158043997482955,0.451168703026245,0.159620983232029,0.0356622809077677,NaN,NaN,NaN,NaN,1.68981233095603,-117.495671617653,1.85644737658391,stable,stable,1,0.464556536684018,0.197101417362444,0.202171611779981,0.8964774917406,0.329758223340909
156,1.60452932178974,2.40512442588806,-0.707223695352244,-1.41533064298857,1.60452932178974,0.00621964945912883,0.00243184836281413,0.00667816785160147,-0.0309731404435261,-0.108750461717218,0.115425982882848,0.00745374881779575,0.172130779367022,0.173007834332775,15.3431673862634,1.84726980658767,1.97500091049767,0.0319119353388814,0.0718609882052417,0.135017739691052,0.503001324416721,0.0251851529674383,0.00619473733423806,NaN,NaN,NaN,NaN,1.64682358488304,-115.230680905002,1.5,stable,stable,1,0.462476052677153,0.181358229194916,0.122260970593716,0.954011905267746,0.339992115692866
157,1.64714309814814,2.4315185546875,-0.737755812093897,-1.45362676030583,1.64714309814814,-0.0534323604400987,0.000395625049007222,0.0534338250678353,-0.0321877074933208,-0.114098808402527,0.120429555441016,0.00776622658107554,0.140806297896185,0.142598576913367,15.4752239367159,0.661098279169895,0.720531288431728,0.176141709232478,0.240220149754096,0.109362049930359,0.375427536439251,0.156662533253437,0.0391828134369299,NaN,NaN,NaN,NaN,1.69535374865113,-115.407012304463,2.40868302516161,stable,stable,1,0.467757874888844,0.186280678983793,0.195644495742606,0.901073484495463,0.351394644475396
158,1.6380730664649,2.31841659545898,-0.760799175047664,-1.44009573938367,1.6380730664649,-0.0408427947414347,0.00671576114064832,0.0413912470214321,-0.0321733462142987,-0.110128766440347,0.115822437131356,0.00747068942546679,0.11197810980812,0.113860326178006,15.4489324690353,0.893377554576667,0.915487243609084,0.177095847831943,0.240218436978231,0.161562295865554,0.447446027502273,0.159548529200454,0.0370299344434314,NaN,NaN,NaN,NaN,1.65925020896733,-117.23842078182,2.08116198787211,stable,stable,1,0.459591549626241,0.160665689310932,0.180775301715686,0.897239566955426,0.328194535170865
159,2.57692607720693,3,-0.748132618516312,-2.43340881047975,2.57692607720693,0.00692108830148345,0.00470747720218693,0.00837029299881676,-0.0381825494089809,-0.310665115226284,0.314789914000217,0.020318753474901,0.202205574841527,0.204566286850902,15.4234840583704,1.63026142356671,1.65593425571619,0.0312671333627367,0.0498444601883856,0.113777366102103,0.4514666019635,0.0245841790021643,0.00582629825331527,NaN,NaN,NaN,NaN,2.88835322200788,-105.56852442763,1.6378479889022,stable,stable,1,0.728093544625361,0.0967261863448906,0.0710806674959705,0.95854632440998,0.349432281732399
160,1.51879901707578,2.16348123550415,-0.669792301479326,-1.34703669364747,1.51879901707578,-0.0556092978766786,-0.0134914180495159,0.0572224813453941,-0.0260477498750269,-0.0969182898432484,0.101802292816107,0.00656602763169704,0.123392252670423,0.124939569379418,15.4573894752804,0.847876813508089,0.864522110324255,0.176564830417595,0.240171710899983,0.155265015272111,0.394638803693222,0.159560974475454,0.0370305358561499,NaN,NaN,NaN,NaN,1.56544004446909,-115.546181583882,1.57262321269057,stable,stable,1,0.430000985096091,0.155544287393039,0.177708210493817,0.898263021818234,0.330993326545728
161,1.66549215065379,2.43630051612854,-0.769353016299446,-1.46488920727189,1.66549215065379,-0.0373941938434992,0.00181552650434727,0.0374382407398262,-0.0331576459117523,-0.113794905929642,0.119857547881015,0.00773264901516672,0.12269778496424,0.124590847719782,15.3847198501341,0.995073362288681,1.12477851627167,0.177662552885415,0.240193216603851,0.158092563130879,0.490027623624462,0.159633653401571,0.0348091198101451,NaN,NaN,NaN,NaN,1.70136515468512,-117.053321105748,1.97440801082224,stable,stable,1,0.4690494097183,0.180295559700788,0.191783487970314,0.894512744511461,0.329736638608498
162,2.57155957698822,3,-0.718980442585092,-2.4361802083497,2.57155957698822,0.00403843289453167,0.00323739263589477,0.00517587203498899,-0.0358098984040703,-0.310383240773345,0.314055218460788,0.0202879089029461,0.201252721665011,0.203669366022441,15.3242042583592,2.17028346723379,2.20016417601671,0.0176399058504068,0.0725010600815649,0.142401644963747,0.468875121827777,0.000444761203836109,0.00629573083170209,NaN,NaN,NaN,NaN,2.85921158454158,-105.062668776886,2.34514422628212,stable,stable,1,0.72648309373468,0.0973480050507318,0.060895831342662,0.956840815592114,0.336710380016112
163,1.65249485588398,2.53136014938354,-0.755702754862579,-1.44503184693918,1.65249485588398,-0.0526692585583423,0.00935602170088615,0.0534937934638493,-0.0344273076675374,-0.114309732946625,0.121951681962537,0.00786810615248009,0.155478710383316,0.157400799436583,15.3592233367619,1.12912652873982,1.09694039963377,0.177561942227377,0.240219126766149,0.150618595268409,0.452084004872282,0.159517781709615,0.0378650676633469,NaN,NaN,NaN,NaN,1.71874998102098,-116.787170824054,1.5,stable,stable,1,0.472145454789712,0.207551886505774,0.209197039288349,0.893728503020519,0.33305840210293
164,2.50037670534764,3,-0.766918646772263,-2.34795699822988,2.50037670534764,-0.0233968368727583,-0.00133352158494793,0.0234348086287894,-0.0385049205879664,-0.29306784354141,0.297653124081852,0.019215592168402,0.223133379242745,0.224866474378561,15.3766763095706,1.76107517430405,1.51084230525207,0.0624434873885356,0.2402664723526,0.123263743922933,0.491449214818066,0.00192562318026611,0.00920205075498408,NaN,NaN,NaN,NaN,2.64390369362176,-106.697557678757,2.06589508001301,unstable,unstable,0,0.711740416301748,0.116711622878727,0.0742290065263383,0.943070333252077,0.34521611381203
165,1.59609791332362,2.4314501285553,-0.68655427150499,-1.42926576677801,1.59609791332362,-0.0358166985502137,-0.00386668715154486,0.0360248131787634,-0.0264981679894916,-0.108306361947084,0.112490101441609,0.00725557972533167,0.10686149755862,0.108593046311787,15.4395748570801,0.86981035136457,0.855519175304767,0.177311846422987,0.240189705172863,0.147797602960076,0.442917135314933,0.159527011044994,0.0350210815309171,NaN,NaN,NaN,NaN,1.65443912380199,-114.70021335318,2.30777991020296,stable,stable,1,0.447344719481988,0.194558797509902,0.200371111042231,0.897787916221819,0.334312176462188
166,1.64551640232404,2.69437718391418,-0.730095778409688,-1.44885753525678,1.64551640232404,0.00597861724581468,0.00231299408898846,0.00641044505690894,-0.0333384830750399,-0.114055502334358,0.121390003879864,0.00783534587249765,0.179528457840535,0.180482622456742,15.4200924843326,1.81662190093751,1.67329831190076,0.021749719655693,0.0511491033516288,0.121416701960048,0.425928037611321,0.000543759388861352,0.00694850192776148,NaN,NaN,NaN,NaN,1.6985678915868,-115.061450151433,2.17426254488926,stable,stable,1,0.474900898444426,0.237168924118216,0.145069753284155,0.961704338499853,0.34603702135109
167,1.50951093757475,2.17853116989136,-0.709354433665313,-1.31751217766231,1.50951093757475,-0.047941982156973,-0.00560561897114944,0.0482685883073995,-0.028755262459041,-0.092005570001034,0.0978567275081137,0.00631140997167805,0.11188331550861,0.113403117387845,15.4122291281693,0.712709099066627,0.880383475208653,0.175549228852967,0.240154648815383,0.137917226208639,0.454281405447483,0.156764921629589,0.0411656667828544,NaN,NaN,NaN,NaN,1.53242316823457,-117.234742424214,2.05518025234404,stable,stable,1,0.425216873497502,0.159378793460927,0.180269907954179,0.899708229632782,0.338703455018383
168,1.7012699672154,2.43902277946472,-0.836008894475346,-1.46392455909541,1.7012699672154,-0.0529052189286811,-0.00128783880984521,0.0529208911365996,-0.039988725134939,-0.114860201549838,0.123811755130103,0.00798627145718653,0.137415980982053,0.139334756505043,15.4316576726814,0.949247938978836,0.916056130407923,0.176398356382837,0.240198340784692,0.148779983100067,0.466245316876363,0.159536941537528,0.0355354128132713,NaN,NaN,NaN,NaN,1.76822611766951,-118.998443980142,2.27206240580917,stable,stable,1,0.481538942558449,0.17569654613114,0.189245203324432,0.8971448612634,0.333875563066637
169,2.45495629390081,3,-0.779109376739911,-2.29538405405716,2.45495629390081,0.00534196236808244,0.00628296311084192,0.00824695018744562,-0.0406415483158043,-0.278649541072815,0.28372900785933,0.0183126771037797,0.220013653860225,0.22218643430868,15.4102141988887,1.43566809503953,1.60885514613263,0.0267747545386367,0.0497022754914489,0.11647204966323,0.418101147108679,0.00683503565806169,0.0049166751778046,NaN,NaN,NaN,NaN,2.66549340284327,-107.193726307889,1.95628940294404,stable,stable,1,0.699092298568618,0.124146774740017,0.0793137403526532,0.9626913686929,0.34823464459412
170,1.72332236515421,2.74882483482361,-0.756704418108948,-1.52219130113121,1.72332236515421,-0.0743532545147775,-0.0128781441425647,0.0754602746714849,-0.03553094124113,-0.128007090770951,0.135515124719901,0.00874052930994803,0.173655771866726,0.175711487766159,15.4376068275865,0.94093439542442,0.796237944490879,0.177179407032001,0.240247776132844,0.147686509250079,0.405713232692484,0.159502403962299,0.0360172105385071,NaN,NaN,NaN,NaN,1.77840570795084,-115.675983280215,2.05882008943768,stable,stable,1,0.494694928261022,0.244572439365386,0.230730588404357,0.897761085241808,0.334361551444409
171,1.64137601122564,2.57772922515869,-0.796297611006758,-1.41171633046881,1.64137601122564,-0.0587520614696781,0.000354085024174962,0.0587531284540762,-0.0376665359613376,-0.109637325761862,0.118748767997356,0.00766218490117157,0.170305476949894,0.172115683854289,15.3407493056223,1.10225941090592,1.1833814995113,0.177254317849163,0.240226754810683,0.151087477431383,0.491160916589784,0.159605587270885,0.0372821961508544,NaN,NaN,NaN,NaN,1.68221562017466,-118.331726157389,2.28460755364565,stable,stable,1,0.472123406431029,0.221450880018183,0.217363506812422,0.89341423392214,0.332850010030496
172,2.42108945463812,3,-0.837481471073052,-2.23792279731624,2.42108945463812,0.00369418819032744,0.00695903244367258,0.00787877902581627,-0.0457302631435597,-0.266200768486146,0.272772595413973,0.0176163020076596,0.223357464459621,0.225464702882852,15.3811543898231,2.03976068207913,1.90463859326335,0.0237496569593474,0.0549347120533328,0.148385209763572,0.429689139687617,0.0118999467583516,0.00883558102471588,NaN,NaN,NaN,NaN,2.5789773418386,-109.450212225276,1.93440453582611,stable,stable,1,0.690716795146736,0.131699315527822,0.0875213930970697,0.95713346292835,0.334051017882857
173,1.57296940684319,2.20846772193909,-0.73528476773003,-1.37864376838543,1.57296940684319,-0.0433572589375405,-0.00263172183540689,0.043437056327471,-0.0303050146191245,-0.101107008795744,0.106723062767615,0.00688245413663182,0.107154446032948,0.108803594628597,15.4690706405963,0.764093727967556,0.722616832095168,0.17398582553761,0.240168883365623,0.105894408569014,0.369624228664613,0.156840196873481,0.0414484313560247,NaN,NaN,NaN,NaN,1.60572032516396,-117.151648626796,2.42863410945315,stable,stable,1,0.441219227417236,0.150950581223281,0.175349259756696,0.901325789973559,0.352935818413772
174,2.35891251904624,3,-0.770625093585233,-2.19223099207218,2.35891251904624,-0.032173999198285,-0.0175131698145583,0.0366316439893816,-0.0361606517409255,-0.249399673651085,0.254386608844776,0.0164147516091389,0.23533735455971,0.236826504343592,15.4209516851434,1.38584269769102,1.22093181865726,0.0633839214755171,0.240202591362978,0.111090841697979,0.453158851346932,0.0018969508674862,0.00984159382524714,NaN,NaN,NaN,NaN,2.36078838964489,-107.709824257803,1.5440175246723,unstable,unstable,0,0.676408639281049,0.15096048461265,0.094998141433027,0.947826239490933,0.350626292578676
175,1.64756266478779,2.31971955299377,-0.792350448044991,-1.42433008169484,1.64756266478779,-0.0571193320013778,0.00204125373652028,0.0571557941516035,-0.036312728923115,-0.107910041234419,0.116132836328774,0.00749333498253255,0.120792293946831,0.122628954416552,15.3658054764074,1.0928586115044,1.1382712582839,0.177392092107223,0.24018882032042,0.161553567020429,0.5065718752382,0.159658484908423,0.0347902543365846,NaN,NaN,NaN,NaN,1.70036876942666,-118.357386427334,1.85605864486072,stable,stable,1,0.46387583482672,0.161713862107475,0.180638645467391,0.893773647826623,0.328198414657587
176,1.75715085466703,2.5700888633728,-0.892228960599307,-1.49374321448349,1.75715085466703,0.00679920354439732,0.00139266080544052,0.0069403654772033,-0.0449245583246466,-0.118206776837135,0.129147198337381,0.00833622364885419,0.144849941237348,0.145856768711131,15.4201259606678,1.68289807701504,1.60677390267385,0.031554270461543,0.0542564817489722,0.112539067984473,0.431182058974444,0.0236795869837005,0.00680837188773391,NaN,NaN,NaN,NaN,1.79740384781532,-119.424856454763,1.52312905537433,stable,stable,1,0.497744914986767,0.184183452296287,0.123510103854956,0.958375442071673,0.349982636451345
177,1.91776122771153,2.6565101146698,-0.974419676449848,-1.63457762005363,1.91776122771153,-0.0593624949839301,0.00269143174737425,0.0594234769730609,-0.0530665292710419,-0.141725568401026,0.153861177573644,0.00992698863303853,0.142310474187087,0.144858933327537,15.3778334722822,1.15098649999687,1.05169712588282,0.177264290193232,0.240227973019824,0.158870111510703,0.463740001504368,0.159654961953943,0.0354136233979338,NaN,NaN,NaN,NaN,2.00389774569212,-119.82849383685,1.88920770420344,stable,stable,1,0.540374780721915,0.177112803677339,0.190103124310435,0.894061054985758,0.329391061550799
178,1.79467539722417,2.64598560333252,-0.959064677622402,-1.49440381337746,1.79467539722417,-0.0549492512617332,0.00826561976148529,0.0555674426644464,-0.0516478454361297,-0.120239250937276,0.134238958967443,0.00865881626391096,0.14329441382999,0.145428537129528,15.4367155748361,0.937155967984835,0.993959217376637,0.177227646344461,0.240249101729706,0.165896751165245,0.464615000084676,0.159533968374183,0.0376047751696675,NaN,NaN,NaN,NaN,1.88108853169074,-121.75609313085,2.14837500638362,stable,stable,1,0.50766581335235,0.201732160862861,0.205617746159859,0.896213128942787,0.326268110593225
179,2.499953515927,3,-0.652855995557522,-2.38282846323138,2.499953515927,0.00474711923810179,0.00285071112857024,0.00553730033493853,-0.0307030889534287,-0.298713844686156,0.301586158996718,0.0194715008047485,0.211400087527131,0.213713675147818,15.4040116859653,1.83998753136218,1.8989032930253,0.0147636014066766,0.0538801672676958,0.128746285909325,0.453809503138466,2.4284870614705e-05,0.00820801426807847,NaN,NaN,NaN,NaN,2.73243854491602,-104.018907315581,2.4507514929253,stable,stable,1,0.709397005943429,0.113525630644498,0.0711109041236469,0.963241199962189,0.342779428484745
180,1.80067463391492,2.45055747032166,-0.900421906678513,-1.54706626556521,1.80067463391492,-0.0415559003750154,-0.00155909870314172,0.0415851373058253,-0.0448756966848802,-0.126972125330037,0.136287915555322,0.0087904068040015,0.139073288072405,0.141281678598511,15.4610109475682,0.990477973740112,0.806600093283822,0.175401536650003,0.240210908100027,0.171673970400612,0.38641403719623,0.1596294000972,0.036333284420367,NaN,NaN,NaN,NaN,1.85620598441334,-119.444845846151,2.25562591127402,stable,stable,1,0.508436238097015,0.153847580030916,0.176467051487338,0.898179332576953,0.323700457599728
181,1.85851654795562,2.56037712097168,-0.900701322714132,-1.60941987412176,1.85851654795562,-0.0452537625557288,0.00875794246040493,0.0460934331720913,-0.0452779296824478,-0.137077184044321,0.146386969997095,0.00944096942618795,0.134633032212214,0.137100981881194,15.4688109030071,0.897620579401759,0.734573633321763,0.176648903885757,0.240246844177195,0.149444412374989,0.414484066931049,0.159520467046246,0.0373438793471704,NaN,NaN,NaN,NaN,1.8944468966032,-118.434379956689,2.33366617520977,stable,stable,1,0.523024609164405,0.166369091676829,0.184299032849865,0.898851164957151,0.333580261166672
182,2.4334291613102,3,-0.443866385591844,-2.36284678758034,2.4334291613102,0.00794471546376304,0.00989926701638574,0.012693068630629,-0.0184384423260322,-0.295618764175622,0.296816382070349,0.0191722836403862,0.221508732285925,0.223812276292814,15.3489820710426,2.10294962418504,1.95173024538867,0.0284614970575845,0.0715947934797311,0.121805079958508,0.488252038654646,0.00870955981449752,0.00586577125598026,NaN,NaN,NaN,NaN,2.61222307005049,-99.3162222201901,1.88976834360214,stable,stable,1,0.693676898274615,0.129805501287488,0.0838872239750502,0.953911052495986,0.34586440890733
183,1.81181470228701,2.49966430664062,-0.957628277237832,-1.51568910088806,1.81181470228701,-0.0546025641791119,0.0123027467860698,0.0559713997807468,-0.0513947713365802,-0.122696336257679,0.136530887837199,0.00880663353777727,0.141034659923752,0.143154775436912,15.4300472982016,0.942059522544991,0.97182521845802,0.176703347994819,0.240241340354963,0.148304932217934,0.439541228374422,0.15968052308065,0.0365111048282325,NaN,NaN,NaN,NaN,1.87171872539055,-121.350351106356,2.21327070756036,stable,stable,1,0.511781542363919,0.1650275842727,0.183262437324882,0.896610660180424,0.334086696792029
184,2.47072258254397,3,-0.253681861477292,-2.42655885890102,2.47072258254397,-0.0127814325864089,0.0135101727979334,0.0185981124846296,-0.0105871005389274,-0.317755146688631,0.318286069900112,0.0205436912113718,0.21892922093906,0.220767027876002,15.4267828192813,1.62312164066948,1.45190780500811,0.0630619997473606,0.240414248452975,0.126866413912862,0.469743491623438,0.00194967523780609,0.0114165572748412,NaN,NaN,NaN,NaN,2.70378156394852,-95.0700514349474,2.42116586381179,unstable,unstable,0,0.703012760920259,0.122497072883122,0.0785162414304567,0.94430805448171,0.343614927149839
185,2.08821070761908,3,-1.21041273600809,-1.68341105472108,2.08821070761908,-0.0518750208693556,0.00472299194514373,0.0520895809458088,-0.0798826127573201,-0.15034707815288,0.173997397704538,0.0112215170397812,0.147952752102338,0.15076119329818,15.4544423598153,0.855002877576568,0.813769609992819,0.176184760222347,0.240271428668384,0.109530583917082,0.394819302759455,0.159648033195811,0.0369027037774338,NaN,NaN,NaN,NaN,2.15708888634091,-124.745911655981,1.9147934554604,stable,stable,1,0.587008427358057,0.214702347292439,0.2131952548058,0.898795836057924,0.351319740481297
186,2.06666887442271,2.82123589515686,-1.12289315738094,-1.71845602637287,2.06666887442271,0.00747741416837099,0.00479988596638929,0.00888541658762807,-0.0685496053995974,-0.154657101526494,0.17209304090862,0.0111181452119518,0.139881657769219,0.141300951669243,15.4118340115604,2.26222556454423,2.28827290482709,0.0189098125553353,0.0518061843583519,0.15859980584597,0.456588777996852,0.00060342932719237,0.00627332952749002,NaN,NaN,NaN,NaN,2.10837557196529,-122.363616262261,2.30558345421937,stable,stable,1,0.579371890179904,0.171406572706249,0.105393345173104,0.954791177177272,0.329511197401791
187,2.02500362542211,2.81430387496948,-1.08991808101104,-1.69214511729707,2.02500362542211,-0.0408446998753043,0.00288420868972078,0.0409464060409402,-0.064736990469028,-0.151678507121182,0.167485041188467,0.0108031665290645,0.138533392448575,0.141359621922754,15.4310099506193,0.913271751680604,0.980271055322213,0.177205251402014,0.240268374814414,0.149457038768581,0.489782789567927,0.15960034700154,0.0358594193363418,NaN,NaN,NaN,NaN,2.09849345512064,-122.244984043751,2.41454170657405,stable,stable,1,0.56827289116378,0.185099397255665,0.195032914759218,0.896519537958257,0.333574649436186
188,2.00129912661857,2.72678804397583,-1.12759568561687,-1.63747809555583,2.00129912661857,-0.0607790097234014,-0.0026863489437998,0.0608383472294011,-0.0696342406405614,-0.143160177813225,0.162198554410778,0.0104620832145373,0.145988027349423,0.148487319028319,15.4501641400005,0.920290223665027,0.971700621790199,0.176516446263058,0.240250175671744,0.167713374669338,0.44864870126105,0.159584912737284,0.0353640303624096,NaN,NaN,NaN,NaN,2.08252249604559,-123.526280590972,1.55283566302429,stable,stable,1,0.56337723090395,0.17438870339744,0.188419497326214,0.896876134511323,0.325460722369183
189,2.50122913916906,3,-0.771197331042668,-2.34183355951811,2.50122913916906,0.00794954477093552,0.00761769343941243,0.011010200515975,-0.0412254832673406,-0.288420349034262,0.293734535868797,0.0189630339139819,0.218196318160623,0.220463885899533,15.3478358490732,1.89679283005161,1.75494153525183,0.032728809344257,0.0788892485594996,0.126088446480785,0.50289390033425,0.024130193034181,0.00748428864771705,NaN,NaN,NaN,NaN,2.71977714743149,-106.924123588306,1.5,stable,stable,1,0.711087214291655,0.114241980448224,0.0819912780146091,0.954943396743344,0.343960690452985
190,2.00122095695158,2.86804962158203,-1.09387846571037,-1.65313289332502,2.00122095695158,-0.0568579102756277,0.0105556228880385,0.0578294313949724,-0.0670087633183598,-0.146522495414116,0.165178306966814,0.0106545542817672,0.163718578396641,0.166378897361227,15.4376206231217,0.987471749479964,0.955599114759683,0.176196217969218,0.240623362951459,0.15852691240099,0.451825927828557,0.156731733636109,0.0408085706800032,NaN,NaN,NaN,NaN,2.06580628279313,-122.281189709167,1.58455709714192,stable,stable,1,0.566934701326001,0.205638511964263,0.207881135708546,0.896634905653508,0.329543594488449
191,2.00845235140145,2.70997619628906,-0.978605931704376,-1.73826920220394,2.00845235140145,-0.0515947023788918,-0.000531219260116572,0.0515974370242238,-0.0528720126888965,-0.159297624658234,0.169987646328126,0.0109637508357728,0.139115611423997,0.14182359693346,15.4466673415111,0.830501687607482,0.93145177419447,0.176428429635706,0.240473178649975,0.139614599172465,0.464140507355651,0.15679968905624,0.0404326785255526,NaN,NaN,NaN,NaN,2.07634549688122,-118.754548572983,1.64856037970965,stable,stable,1,0.563952013093746,0.16730239522082,0.184772980015264,0.897941865125132,0.33794906703446
192,2.47914835453033,3,-0.960511907730288,-2.24991649145937,2.47914835453033,0.00786805057283969,0.00413680411771791,0.00888928389270647,-0.0572246265309416,-0.267534932010408,0.27729442069248,0.0179015634137313,0.216426700689783,0.218517000773707,15.408909075836,1.91576755050194,1.64346628022994,0.0218518700951607,0.0496249735448356,0.123742639917486,0.445184006652572,0.00115325383212251,0.00664516876291642,NaN,NaN,NaN,NaN,2.68099720733185,-111.612146549017,2.14587433644461,stable,stable,1,0.704809628029497,0.118821322277671,0.0742217756300206,0.961108656282383,0.345003271147784
193,2.06308616748472,2.79247140884399,-1.06793998845352,-1.7500924559032,2.06308616748472,-0.0497710956866471,-0.00263609311604052,0.0498408562603595,-0.0624901507539269,-0.160938106605545,0.175063783024089,0.0112919211165885,0.13084914643058,0.133693018698991,15.427214895554,0.919572925699316,0.947548367455842,0.177503671966943,0.240290731915882,0.147921115815928,0.375476618933338,0.159580319122435,0.0350905465515264,NaN,NaN,NaN,NaN,2.11900443077325,-120.570247299149,1.7927867384058,stable,stable,1,0.576894915069058,0.173249169620235,0.187634286794788,0.896577925284595,0.334257281859588
194,2.51009599416001,3,-1.0053585987503,-2.26295604703951,2.51009599416001,-0.0304295261223591,-0.00505075594591353,0.0308458456790622,-0.0580545521490649,-0.268944234237462,0.279104740009905,0.0180218515160204,0.22278809932953,0.22435222932485,15.3231825413167,1.78081085988672,1.62932562838661,0.0624392169061553,0.240235468331543,0.126465037770066,0.494342533560367,0.00186813981112932,0.00708235335261013,NaN,NaN,NaN,NaN,2.61715863552686,-112.220792726245,1.91073423509702,unstable,unstable,0,0.714229377640973,0.115883473021825,0.0729357693927279,0.941986461996203,0.343793316546637
195,2.03551954192084,2.78158497810364,-1.02384000192018,-1.73587649759319,2.03551954192084,-0.0623903284870017,-0.00321627395285008,0.0624731742978997,-0.0597646454157167,-0.160877962255346,0.175192851631955,0.0113010917694694,0.169266358045833,0.172069788016594,15.4324302776185,1.0566518694394,0.963670158018879,0.176265894767977,0.240291322158316,0.166334266901061,0.461807111133365,0.156823247515669,0.0419077540796046,NaN,NaN,NaN,NaN,2.08957514186263,-119.371133784789,2.068200476568,stable,stable,1,0.57721916878221,0.179318138429077,0.192529287477196,0.895993093828839,0.326073659155084
196,1.92078630940173,2.6533215045929,-0.903162151640523,-1.68064538060897,1.92078630940173,0.00815243754464163,0.00797106781549494,0.0114017612691418,-0.0453905226339492,-0.148612458500043,0.157196420151311,0.0101488298076038,0.134487207898977,0.135715206395673,15.3763738491983,1.90787552766441,1.76061755356308,0.0272638605899109,0.074025756111147,0.119968079552453,0.511985881062334,0.0128750582832252,0.0080002518129707,NaN,NaN,NaN,NaN,1.98818975952798,-117.123132335998,1.55696999447798,stable,stable,1,0.539352723786262,0.166910741817356,0.108777875693735,0.9575441954954,0.346680853532243
197,1.88612696329753,2.73983025550842,-0.839276078194353,-1.6750586210958,1.88612696329753,-0.0580593883197384,-0.00771865357251944,0.0585702158527246,-0.0401107229966309,-0.150340898455778,0.157148986034555,0.0101347241304853,0.13049220707387,0.132881200296197,15.4503100209625,0.82244447210164,0.719399977426152,0.174622662179933,0.24025241925981,0.137594604027116,0.439757963498249,0.156756678590099,0.0401880164844769,NaN,NaN,NaN,NaN,1.96491164649544,-115.571452830696,1.66400031280063,stable,stable,1,0.529543430271913,0.202821113653785,0.205976127297377,0.900574176806601,0.338846842654615
198,1.78783376606143,2.52459526062012,-0.772556523154741,-1.59256194341571,1.78783376606143,-0.0555192677372026,-0.00130510762538645,0.0555346053914947,-0.0348241552026232,-0.13585751661975,0.14212146330529,0.00916614795190923,0.15248513734069,0.154698978721981,15.4275393416304,0.836520880964187,0.865458517090993,0.176569308236197,0.24022494103307,0.149282191217461,0.501392600506598,0.158768773177994,0.0353583405612863,NaN,NaN,NaN,NaN,1.88489007794024,-115.359098105949,1.55113092193744,stable,stable,1,0.507695466694111,0.175952680597478,0.188993085934629,0.898342650611468,0.333652359458906
199,2.47244104186694,3,-1.11321024644166,-2.17133963331065,2.47244104186694,0.00932712410165969,0.00278840127844781,0.00973501030802795,-0.0736885932083454,-0.249471008757279,0.265267262670938,0.0171276902889969,0.22135832028739,0.223326444685739,15.4122856408664,1.84478474834979,1.98145582110715,0.0173466092812423,0.0504164035062572,0.130334032327181,0.416423011314046,0.000340959965607663,0.00621131221426614,NaN,NaN,NaN,NaN,2.68563096804021,-116.007396076949,2.33004200713346,stable,stable,1,0.703982900101665,0.120485517469744,0.0747015072313446,0.96126337659936,0.342073763410142
200,1.89277632816418,2.58072805404663,-0.829467021842387,-1.6798122166599,1.89277632816418,-0.0652475753529301,-0.00764657262075328,0.0656941105600856,-0.0402608870159955,-0.151221884054838,0.158706028484541,0.0102375486881838,0.15863421084357,0.161282446049378,15.3711641232848,1.00894093191322,0.921364653270067,0.176410422041208,0.240232913369117,0.14292995459804,0.484184556620989,0.156846896478414,0.0397333640307339,NaN,NaN,NaN,NaN,1.97177383483815,-114.893051128023,2.15690843467783,stable,stable,1,0.53699684338699,0.166833058592901,0.1842580629351,0.89662810223867,0.336475575734204
201,1.82515373846301,2.62845325469971,-0.781966070715134,-1.62949606414219,1.82515373846301,-0.0605883636368528,-0.00468754198702561,0.060769423710215,-0.035749490213132,-0.14207164944276,0.148463707114502,0.00957676884395546,0.16306066125723,0.165492322383602,15.4168036353597,0.968572808052206,0.90609108811695,0.176172434869837,0.240247467906615,0.142700746220245,0.491333483316272,0.159538735755225,0.0359527972279814,NaN,NaN,NaN,NaN,1.87135485490829,-114.338554000358,2.02142910209866,stable,stable,1,0.519806128066855,0.191883452166797,0.199109920526717,0.897184280523753,0.336577446124336
202,2.34274282455444,3,-0.95359848797538,-2.10768004189803,2.34274282455444,0.00940897770102512,0.00574376012332381,0.011023594773606,-0.0560417899717875,-0.23794978715329,0.248112157329196,0.0160160569380913,0.223675342889138,0.225502065031965,15.4190565478709,1.76586205034979,1.68276414558506,0.024504404759385,0.0466390322771469,0.115262152989969,0.433524316045926,0.000615904644824248,0.00477116207309211,NaN,NaN,NaN,NaN,2.45321237213052,-112.912057666969,2.06783625677764,stable,stable,1,0.669831832887578,0.149903856850411,0.0919510175345254,0.960651448937962,0.348772376448903
