scenario_id,mean_wind_speed,max_wind_speed,wind_velocity_x,wind_velocity_y,wind_velocity,wind_acceleration_x,wind_acceleration_y,wind_acceleration,wind_body_force_x,wind_body_force_y,wind_body_force,mean_wind_body_risk,mean_wind_gust_risk,mean_wind_risk_raw,min_thrust_margin_n,mean_abs_roll_deg,mean_abs_pitch_deg,mean_abs_vz,max_abs_vz,mean_tag_error,max_tag_error,stability_std_z,stability_std_vz,mean_imu_ang_vel,max_imu_ang_vel,mean_imu_lin_acc,max_imu_lin_acc,wind_speed_cmd,wind_dir_cmd,hover_height_cmd,gt_safe_to_land,label,success,onto_wind_condition,onto_gust,onto_temporal_pattern,onto_drone_state,onto_tag_observation
1,2.03587499281176,2.68703556060791,-1.25569712032243,-1.58388878629434,2.03587499281176,-0.0605518509305742,0.0124118782349822,0.0618108515750957,-0.0853085720876835,-0.131956659596467,0.161064544214646,0.0103893139959523,0.125683442437477,0.128290931717045,15.4535640013302,1.13338147620693,0.844461216471019,0.176216246902422,0.240285125006313,0.146668156427034,0.332677288704874,0.15682620729518,0.0418873829034728,NaN,NaN,NaN,NaN,2.0716688985117,-127.374480982322,2.31472368639318,stable,stable,1,0.568558184426545,0.157843117209568,0.179638182502639,0.896351683963462,0.334814152699096
2,2.29932674129804,3,-1.38847244486076,-1.79453298863594,2.29932674129804,0.00986653155562309,0.00633743291826318,0.0117265297906752,-0.109383634309487,-0.17447847074161,0.215116742487338,0.0138838850251891,0.229231959657806,0.230924371195732,15.4429551479972,1.58178998208498,1.6106532503552,0.0281224943718918,0.0815008684620141,0.113876582851021,0.489226387604285,0.00154806110155829,0.00476256385434541,NaN,NaN,NaN,NaN,2.42882567996652,-126.095851442396,1.92963867692304,stable,stable,1,0.659338671918624,0.159801347002898,0.0983006767595672,0.960855270273453,0.349388185399546
3,1.81680484450593,2.52171301841736,-1.12339510817252,-1.41211254645743,1.81680484450593,-0.0326257919685051,0.0244385142156894,0.0407637495655469,-0.0681174844437201,-0.106195969119425,0.129173549566724,0.0083335892645016,0.121618872932834,0.12368157999244,15.3502217205628,1.0572469109794,1.10941026949927,0.176678656905777,0.240256508076784,0.143298623685292,0.507056603576905,0.159489958112734,0.0368250518149028,NaN,NaN,NaN,NaN,1.87319628751653,-127.297520073929,2.2716423064837,stable,stable,1,0.509217607866737,0.166077693217088,0.183921969690826,0.894636936557636,0.336311722806537
4,2.43119704105236,3,-0.710350674460587,-2.28851958521132,2.43119704105236,-0.0293699611069495,-0.0167581745834438,0.0338146570408884,-0.0324338092846625,-0.270913292014612,0.27468398532986,0.0177282632460151,0.234681007279773,0.236244109274051,15.4227087099231,1.62062177491479,1.24802237725395,0.0637371088754522,0.240130810778219,0.118907529687914,0.435231815171403,0.00185042101780388,0.00923813541487158,NaN,NaN,NaN,NaN,2.46779887999601,-105.553838771394,1.59124311655838,unstable,unstable,0,0.695568032802106,0.134180019554049,0.0846897430427196,0.945592098652377,0.347152209027594
5,1.8401128426701,2.60278534889221,-1.07582377429776,-1.4693530738537,1.8401128426701,-0.0600044595992042,0.0115151905125341,0.0610993844840723,-0.0642970828317612,-0.115641235622902,0.136582972487921,0.00881036899269673,0.150558654766022,0.152736502531346,15.4308300075891,1.00321631731678,0.980310924689197,0.177205505008111,0.240214989994385,0.139243514393784,0.472344838429658,0.156743432338511,0.0423503257884064,NaN,NaN,NaN,NaN,1.88084050141636,-125.058018224367,2.10953026282227,stable,stable,1,0.52124405855163,0.182802867722054,0.194745586807749,0.895812390594469,0.338113993602763
6,1.89268035292625,2.53775143623352,-1.04468037128374,-1.56384442128872,1.89268035292625,0.00650822722477309,0.00333855120833399,0.00731457078576358,-0.0592294042167088,-0.127763104999844,0.143255307876729,0.00924823694575422,0.127177163432915,0.128330113010839,15.3973715428877,1.80795710350142,1.67505072312372,0.0336535539413885,0.0565297594080961,0.122176071614915,0.450050979210403,0.0259030584535246,0.00570066810353062,NaN,NaN,NaN,NaN,1.9161886291726,-122.783489357006,1.58330500477601,stable,stable,1,0.530380783382502,0.146481998388192,0.101474639676169,0.955806732962965,0.345699523726704
7,1.90109204682144,2.68793654441833,-1.08042904662351,-1.54418392269242,1.90109204682144,-0.0512547234995777,-0.0036380099431296,0.0513836724783707,-0.0648628747170698,-0.127174423577214,0.146318093986074,0.00943948751995123,0.140357558584992,0.142696800960348,15.3635671367832,1.05595077477666,1.1183614672485,0.176477024910121,0.240249190445738,0.164459254503441,0.475864564368875,0.157058478013919,0.0395050978439881,NaN,NaN,NaN,NaN,1.96867067391655,-123.586570068552,1.91490952036592,stable,stable,1,0.535497239344453,0.186460351913669,0.196045469279474,0.894677605643313,0.326906997998471
8,1.90384934332547,2.72614121437073,-1.1141504034959,-1.51993260062759,1.90384934332547,-0.0655354763051528,0.0155227121186616,0.067348743463127,-0.0690782252526694,-0.124757466890626,0.147125758259383,0.00949261568908621,0.151006171057995,0.153236948467451,15.3569257037842,1.00038054807296,1.16908925377283,0.175485679056158,0.240267214638371,0.166922031960062,0.462288442656503,0.156770272039427,0.0394092724907906,NaN,NaN,NaN,NaN,1.96461919299708,-125.030810267647,2.16907616787991,stable,stable,1,0.538340547913615,0.19736294062009,0.202424085376127,0.895211326314561,0.325812430239973
9,2.63020922427991,3,-0.830582174547721,-2.46031292877312,2.63020922427991,0.00749267903819518,0.00222970446108608,0.00781740501401818,-0.0452044187054744,-0.314610431597629,0.320231955048404,0.0206863367835521,0.19452351082374,0.197084246743945,15.3760982779634,2.12655752990384,2.28147509828181,0.0168954764918553,0.0529733942766492,0.153966754941366,0.410609295025495,0.000905945976964375,0.0076065517907158,NaN,NaN,NaN,NaN,2.98365709536118,-106.900241715489,2.3777509658077,stable,stable,1,0.740805975823431,0.0846361154562574,0.0539503307631706,0.956917719675471,0.331570331137171
10,1.84240810887343,2.62088227272034,-1.1058622732714,-1.45103066829104,1.84240810887343,-0.0522989342125849,0.0179264097181637,0.0552859356903341,-0.0676665799293754,-0.112899885924379,0.135975655546541,0.00877368992138803,0.137292888522571,0.139393824965513,15.3536942534439,1.09584746745412,1.25043304099921,0.177683594150908,0.240315846399057,0.169725461742662,0.50499312045142,0.159570216424925,0.0374155678274349,NaN,NaN,NaN,NaN,1.92399487038037,-126.353098118705,2.12151683975017,stable,stable,1,0.519187594026018,0.185292441742115,0.195701222262283,0.892723141786698,0.324566461447706
11,1.8445151955092,2.48442387580872,-1.1328565142775,-1.44198714739541,1.8445151955092,-0.0460408839930413,0.0126444023662343,0.0477456166580757,-0.0692561397049889,-0.110568275413014,0.133094249414875,0.00858418695528058,0.127551523129248,0.129652508410246,15.4424964890389,0.827115828964294,0.956798322641419,0.177091789565031,0.240218637276618,0.147062482825732,0.441115589059411,0.159379819383488,0.0379289994845048,NaN,NaN,NaN,NaN,1.90759543141243,-127.844704273722,1.53430224252373,stable,stable,1,0.517801220484503,0.152732816121371,0.176267528403284,0.89743763688344,0.334638896521897
12,2.6253002222379,3,-0.783937878356973,-2.47435939695485,2.6253002222379,0.00624281231390812,0.00293631163107561,0.00689888625659771,-0.04040127255671,-0.31899300388995,0.323375762861226,0.0208970767420565,0.193868795542104,0.196436422664832,15.3121358309311,2.32530804557823,2.12918334826884,0.0279129520759274,0.076227081754254,0.138074097532273,0.521129994071626,0.000571699710146204,0.00547627747137729,NaN,NaN,NaN,NaN,3,-106.299635778902,1.94584605739571,stable,stable,1,0.739367343796408,0.085572245810181,0.053588809872129,0.951043948724667,0.338633734430101
13,1.9698486003746,2.82469725608826,-1.03966724310048,-1.6598118008894,1.9698486003746,-0.0511140985012453,0.000958151379186337,0.0511230781512659,-0.0590446114509178,-0.145101432232328,0.158817534196432,0.0102436212410477,0.123666332764634,0.126177929820234,15.4563228229468,0.966341495093329,0.908000291628922,0.175813005148062,0.240274854440523,0.169948336751612,0.38299845697944,0.156715203442723,0.0407761692775977,NaN,NaN,NaN,NaN,2.02726066309477,-121.319262228342,1.84857703829317,stable,stable,1,0.55052854606394,0.201713511863305,0.205507006567209,0.89736652624458,0.324467405888172
14,2.67116752556227,3,-0.732560475848012,-2.53662566436129,2.67116752556227,-0.0241276257787151,-0.00916273551791874,0.0258088753704815,-0.0346638081025022,-0.329708329065035,0.333128735531325,0.0214980207658691,0.19781261340433,0.199798632935588,15.4343984363325,1.60865922761292,1.29850471659635,0.0624929217014807,0.240346457503713,0.115252024776482,0.458507800015239,0.00185431286273099,0.0093585619201056,NaN,NaN,NaN,NaN,2.96211416560549,-104.652706865072,1.91915318117123,unstable,unstable,0,0.752271066737056,0.0787189338997446,0.0514586128154424,0.945911536730473,0.348776877877119
15,1.71387739814058,2.30778074264526,-0.917604330349618,-1.4274455601611,1.71387739814058,-0.0569918250901962,0.00342711343419467,0.0570947741356629,-0.0468606736055303,-0.108587391066884,0.121153504707489,0.00781373680765829,0.13372209703513,0.135605112080767,15.4500880159304,0.817728185538542,0.880582525718827,0.176392353460321,0.24023018002632,0.150541351983576,0.410763518537268,0.159540589097241,0.0353093012167295,NaN,NaN,NaN,NaN,1.78867162897179,-121.8764556945,2.43971225162336,stable,stable,1,0.48415499525364,0.144095627771759,0.170204051047711,0.898459953395675,0.333092732451744
16,1.76966860493024,2.43896389007568,-1.00297175531548,-1.44374205939571,1.76966860493024,0.00536757951367846,0.00311299575577262,0.00620496997664929,-0.0547440352681466,-0.109887766560138,0.125113245209461,0.0080778778730611,0.123625005574808,0.124636609213887,15.3998862838169,1.8368460725203,2.00936269907658,0.0174123274955083,0.0735489715153334,0.131972159172019,0.530000031705081,0.000188794516066689,0.00658661025101395,NaN,NaN,NaN,NaN,1.79698325918466,-123.928221238646,2.36475924237542,stable,stable,1,0.496838949824175,0.151729016986777,0.0935164498662422,0.961073624475413,0.341345707034658
17,1.82980308258856,2.8690333366394,-1.00715835310721,-1.49682901106806,1.82980308258856,-0.0825446549475421,0.00059101851566337,0.0825467707623663,-0.0595923570064132,-0.123611231498613,0.142522412163642,0.0091908804869046,0.184355975661895,0.186546399106645,15.4773836065403,0.774051940206613,0.672106433660912,0.176442748190566,0.240271938338712,0.127124262917561,0.360047198519469,0.156825597020381,0.0407724598050236,NaN,NaN,NaN,NaN,1.90606506718967,-122.683382350962,2.35115501501067,stable,stable,1,0.525256768511611,0.248960381801208,0.233902843443125,0.900415952967186,0.343500327592195
18,1.81211056109188,2.84778213500977,-1.02451672358984,-1.46914107693628,1.81211056109188,-0.0586354584390203,0.00301091477263371,0.0587127123723827,-0.0605030879515559,-0.119858960579199,0.13871234160682,0.00894765580000013,0.18955860860284,0.191806758201195,15.4160265423976,1.00756233783017,0.962307173284898,0.176549396986638,0.240255563642429,0.167067147159703,0.457023542769145,0.158829082215874,0.0358798180266836,NaN,NaN,NaN,NaN,1.87952489310621,-124.36494621675,1.61837979894954,stable,stable,1,0.521590834598075,0.243790101399794,0.229911970602089,0.89624775534792,0.325747934595688
19,2.61050695856412,3,-0.778454980828484,-2.46018224652585,2.61050695856412,0.00788173248702629,0.00502293456740833,0.00934620664577405,-0.0402089482655114,-0.315770398428262,0.320179712437486,0.0206702746094924,0.198787841596264,0.201307764798641,15.4406347332978,1.85809670915386,1.63053865582393,0.0337277690284296,0.0513031842036582,0.122603692818465,0.443305722512249,0.0243785543105322,0.00481015543186879,NaN,NaN,NaN,NaN,3,-106.031594526481,1.51428868771992,stable,stable,1,0.736396741910161,0.0893494055414643,0.0661937037815522,0.955725409046674,0.34550946985846
20,1.89349597976321,2.49579739570618,-1.02167011449187,-1.58047708575115,1.89349597976321,-0.0505709460975767,-0.00252470915922935,0.050633928798215,-0.0569152946639324,-0.131422820921021,0.145426548046869,0.00938049672795207,0.12151820552606,0.12390260349047,15.4569375992337,0.961215275438861,0.937041074982706,0.176729540548923,0.240231787972454,0.167005487721372,0.385372471020432,0.159659773058649,0.0360399961585044,NaN,NaN,NaN,NaN,1.95533603544456,-121.682915799118,1.5648509732063,stable,stable,1,0.529712781968284,0.144800705533506,0.170945775605828,0.896720358400798,0.325775338790501
21,1.94886974655852,2.75804924964905,-1.08425972022617,-1.59673837927149,1.94886974655852,-0.0549884700887941,0.0209831817396861,0.0588559747062853,-0.0652813784350351,-0.136408535307059,0.155332782858515,0.0100177368543722,0.158027271109358,0.160476613021664,15.4636566167169,0.817104607374902,0.827883028350131,0.176979013321628,0.240281997900921,0.141978760426338,0.405211766419779,0.159598019476684,0.0371964232274124,NaN,NaN,NaN,NaN,2.01006102178809,-122.843348050567,2.22107018343589,stable,stable,1,0.551793921686605,0.192855650224854,0.200171815318356,0.898585590487061,0.336898328699405
22,2.62649728894234,3,-0.742785031668616,-2.48408120139924,2.62649728894234,0.00598136127019452,0.00309136431733611,0.00673299457797806,-0.0382115528311085,-0.320996054239837,0.32519087221517,0.0209912222701779,0.197649247621286,0.200094367360417,15.4433809841871,1.76342875563921,1.67348000501872,0.0335044811233176,0.0515831928613553,0.114384429520146,0.490549646749409,0.020178599353529,0.00591601480142747,NaN,NaN,NaN,NaN,3,-105.373889448931,1.64311921925286,stable,stable,1,0.740418150523373,0.0852724923272701,0.0622830398853183,0.956243476318886,0.349162475768824
23,1.71194850871352,2.51091313362122,-0.842298315496192,-1.4594191087813,1.71194850871352,-0.0705028700903359,0.0091992318989676,0.0711004961902923,-0.0430327637122471,-0.116029492369425,0.127683515574813,0.00823483545169409,0.174478343111485,0.176384465075602,15.4651873869405,0.849949741569163,0.806983372551618,0.175924472755915,0.240239003197228,0.135377561122321,0.401330850602753,0.15931327134302,0.0368910237116833,NaN,NaN,NaN,NaN,1.75191981509009,-118.497538474994,2.17506185693152,stable,stable,1,0.491796495338726,0.192802131572452,0.199902095031486,0.899019003439665,0.339832195056746
24,2.67923734693104,3,-0.632529510429904,-2.56672717774562,2.67923734693104,-0.0277922048632832,-0.0054168436203132,0.0283151698912373,-0.0271507343261662,-0.338616700472483,0.340889051288046,0.0219994012655118,0.20022936440434,0.202323937588986,15.3991963249168,1.54442680402721,1.25416197233,0.0630954177560566,0.240200918104399,0.113112818129464,0.423457135092089,0.00184587716544169,0.00718160811715367,NaN,NaN,NaN,NaN,3,-102.185830974197,1.70419172447486,unstable,unstable,0,0.754928080032742,0.0773627114205753,0.0498495105644357,0.946463379307736,0.349727636386905
25,1.72501744542803,2.68589544296265,-0.936708023069039,-1.41958220231615,1.72501744542803,-0.0596086069766026,0.0115437041282531,0.0607160862596703,-0.0517306273220226,-0.110416463098449,0.126463300344512,0.00815583025465396,0.170166442849434,0.172130702026153,15.4661136488357,0.851259616633968,0.704647709719937,0.176453491992569,0.240289580564906,0.158817065399554,0.441327916565648,0.159547484970596,0.0362811802128673,NaN,NaN,NaN,NaN,1.79680657025774,-122.144595008979,1.87612507943602,stable,stable,1,0.494430792519372,0.227328831926228,0.220500448917044,0.899548267868078,0.329414637600198
26,1.84976367513339,2.64438915252686,-1.03279681237481,-1.52188878052814,1.84976367513339,0.00160174234212879,0.00024207756054759,0.00161993212076584,-0.0578982700272778,-0.122040644800763,0.137219765277797,0.00885939058744268,0.129972328452941,0.131059297805686,15.4278792215473,1.83033022286926,1.93916212789505,0.0271734060135375,0.0518064580860196,0.13272145497552,0.470615099548388,0.000837488561718185,0.00702668398013562,NaN,NaN,NaN,NaN,1.89015622586425,-123.159855511628,1.96520818963537,stable,stable,1,0.51948217293004,0.179087719969004,0.110380006930902,0.956795857094369,0.341012686677547
27,1.72128127870106,2.38383817672729,-0.826270119482554,-1.49777311077893,1.72128127870106,-0.0292200451088287,0.0114097695574236,0.0313686766937258,-0.0378434101612122,-0.118491150377098,0.125774677322312,0.00811302110693526,0.110004974957651,0.11207848153295,15.4590652932267,1.00532078095105,0.882951562599903,0.17584917945545,0.240189671625144,0.161023831462549,0.372122709038538,0.159543945166492,0.0378323713173314,NaN,NaN,NaN,NaN,1.77620387229689,-117.832865156267,1.70971029735701,stable,stable,1,0.481424037293538,0.15482622611642,0.177561381677423,0.897238984715803,0.328433852683311
28,1.72573002584937,2.34729361534119,-0.975899580676258,-1.40193695758225,1.72573002584937,-0.0465161023107322,0.015314620013954,0.0489722917613042,-0.0530787382821365,-0.105417737942286,0.121495786933892,0.00783532178059819,0.134371920888383,0.136301230661295,15.466212085298,0.747381950816228,0.793136584345254,0.175875600384166,0.240238063870159,0.134882339354946,0.428845677691697,0.159643794861246,0.0366291053749239,NaN,NaN,NaN,NaN,1.77693740749085,-123.63065316624,1.92394868023947,stable,stable,1,0.487454919692092,0.14883006112523,0.173570509073038,0.899958125603077,0.340052293620024
29,2.63075456619263,3,-0.5221201994677,-2.54480539097334,2.63075456619263,0.00458054450229663,0.00176661823247907,0.00490941217630455,-0.0236744902811303,-0.336615985372586,0.338322338895278,0.021840343076301,0.197905414675242,0.200547503763354,15.4114864046154,1.87146609501484,1.60080858079749,0.0334096209877001,0.0555367810865602,0.12772684270834,0.423737417917224,0.0195166201929479,0.00699292288942271,NaN,NaN,NaN,NaN,3,-100.208461528465,1.65944381725441,stable,stable,1,0.741644051737371,0.0839802815056481,0.061605103373176,0.956013031339053,0.343232514351849
30,1.85362270413613,2.61350798606873,-0.940879150293584,-1.58230857405151,1.85362270413613,-0.0375128897063989,0.00228185484009358,0.0375822265923097,-0.048926490405224,-0.132758042780173,0.143501383793717,0.00925642169590577,0.127561878457613,0.130024854596808,15.4448579743137,0.957514719062462,0.954228823276719,0.176261380038143,0.240250537912175,0.155949429760121,0.409130588465255,0.156634070065692,0.0397432524765095,NaN,NaN,NaN,NaN,1.90894849737311,-119.745808657761,2.10749749906683,stable,stable,1,0.520304358688996,0.177864263310091,0.190785792047113,0.896848467862549,0.330689142328835
31,1.89962146395729,2.89694476127625,-0.951672117721364,-1.61391118006263,1.89962146395729,-0.0715707599235933,0.00329993995993365,0.0716467953210735,-0.054893256635091,-0.144236508483261,0.158979411904697,0.0102542604560357,0.200848529607971,0.203243474270055,15.4369154280757,0.879067257493444,0.927369448552946,0.176810710021034,0.240264353480036,0.140937960050493,0.410478693311943,0.15957067427213,0.0357432608676609,NaN,NaN,NaN,NaN,1.95935225919259,-119.13516242978,2.02230447612615,stable,stable,1,0.547214418575954,0.237532987705629,0.226437641706302,0.89740121372769,0.337360906644225
32,2.61669809381167,3,-0.648457224151742,-2.49911127856961,2.61669809381167,0.00554000067776472,0.00407223705275214,0.00687566157714594,-0.0318543579061209,-0.32498996892515,0.328006641245423,0.0211831887946624,0.200761674996323,0.203300822100059,15.3563928081408,1.97695991784029,2.1005775299653,0.0296596079141127,0.0777892352395285,0.139666206633014,0.498613576299877,0.00657194774207887,0.00603253738819905,NaN,NaN,NaN,NaN,3,-103.01941117063,1.8656340105679,stable,stable,1,0.738446322769791,0.0875034668481841,0.0576165957314018,0.953132401810185,0.337926130385327
33,1.88853324838236,2.65113210678101,-0.824722536377198,-1.67813774406612,1.88853324838236,-0.0502143491167062,0.00117116469247435,0.050228004976819,-0.0394626399174726,-0.151139246792116,0.158293074749831,0.0102098787140161,0.149822646107936,0.152334460026131,15.4572264084724,0.993748675802678,0.841387155283964,0.176297374734027,0.240279345133771,0.149169307052685,0.431769727331828,0.158815267410535,0.0343482441283798,NaN,NaN,NaN,NaN,1.93692079365451,-115.089103932968,2.36901391803216,stable,stable,1,0.534075758240522,0.180793210718779,0.191550760316976,0.897432388245877,0.333702530198807
34,2.59974533611244,3,-0.544998419506865,-2.50928129906456,2.59974533611244,-0.0145843452297682,0.0180708973430782,0.0232219821842394,-0.0255311144291778,-0.338728154138131,0.34072558330873,0.0219985359467205,0.198068500542358,0.200023319400847,15.350229648664,1.76715320429102,1.51447316302242,0.0619731594691972,0.240444702779438,0.144673498696521,0.441861027491105,0.00200631759952871,0.00919352273146213,NaN,NaN,NaN,NaN,3,-101.157933097739,2.34745910227639,unstable,unstable,0,0.733270086843487,0.0943146627751443,0.0608235935510654,0.943229213093653,0.335700667245991
35,1.8098029936252,2.49515128135681,-0.811495317454021,-1.59767193102661,1.8098029936252,-0.0522851625671499,0.00157594642513536,0.0523089077673028,-0.0382117933377406,-0.135786497402803,0.143138990194105,0.00923266101794657,0.142095627185331,0.144399449266772,15.4408662559872,0.93890235717188,0.835094332008988,0.176398657557336,0.240248644307513,0.142569326401134,0.419167562252327,0.159649224688598,0.0371463878852017,NaN,NaN,NaN,NaN,1.86137587595629,-115.841095627455,2.06042704297785,stable,stable,1,0.511494021486741,0.163793331163618,0.182738987083682,0.89786212580634,0.336635854932829
36,1.97239779671033,2.87382960319519,-0.897085097111356,-1.73589389633039,1.97239779671033,0.00810489703156318,0.00274502170708684,0.00855713153250664,-0.0463444123569872,-0.15926394817237,0.168388783283171,0.0108665228473168,0.164759679886957,0.166075240395018,15.4520155220158,1.50304347242197,1.4330943098008,0.0311711349752391,0.051770113408049,0.104087605996665,0.468156710634284,0.0106349985120365,0.00582016962397847,NaN,NaN,NaN,NaN,2.00134863438598,-116.022448666907,1.80088662434301,stable,stable,1,0.559187793868426,0.204390963906719,0.129477669667191,0.961344778509202,0.95373884177926
37,1.79306504921037,2.54640674591064,-0.808139681178209,-1.58225437917006,1.79306504921037,-0.0510712354727305,0.00850755389575124,0.0517749897730574,-0.0376045811644467,-0.133401610665639,0.140621196623156,0.00907000499823275,0.146231088280627,0.148432475417397,15.4375819073852,0.913252574838013,0.886119090666758,0.177197484305302,0.240203480752686,0.131683001471934,0.446388393375818,0.159122831847834,0.0360565931285964,NaN,NaN,NaN,NaN,1.84847057739295,-116.145839673518,1.91588607244981,stable,stable,1,0.507837174872912,0.178993963215955,0.191229124939009,0.897263337618383,0.341474221568029
38,1.92427064123608,2.87777256965637,-0.768345498118568,-1.73152808687981,1.92427064123608,-0.082682283621076,0.00600632055754196,0.0829001562811314,-0.0388406533711978,-0.163771652515366,0.171493758812966,0.0110662257583952,0.195067476543436,0.197714528580466,15.3726918406767,1.23664190243079,1.1331132294202,0.177201106396565,0.244576308071964,0.169987530969535,0.481610089514925,0.156659481070064,0.0414168420154128,NaN,NaN,NaN,NaN,1.9993932608471,-112.620106358339,1.5,stable,stable,1,0.552681743379047,0.22973629587944,0.22252888338259,0.892779942194317,0.324449986235762
39,2.62193939169248,3,-0.619162402543506,-2.51536669107965,2.62193939169248,0.0062140918363027,0.00416512308313211,0.00748085474044535,-0.0289162381330262,-0.329138911996004,0.331556702854933,0.0214013738712682,0.196736282720416,0.19936133268872,15.4235406448263,1.78561061807975,1.5666080053338,0.0234736989795266,0.0498197964038572,0.116150707586511,0.478942664701009,0.000219038940261157,0.0072621429416228,NaN,NaN,NaN,NaN,2.9987372183553,-102.731971335258,2.10920621181978,stable,stable,1,0.739056104322405,0.0864351269049404,0.0545992060345795,0.961924289897702,0.348377463294884
40,1.90802950923946,2.59085988998413,-0.292475915329253,-1.87369771463254,1.90802950923946,-0.0378819925716298,-0.0123868559014009,0.0398557343467547,-0.00693671388458342,-0.184208782555315,0.18446684091596,0.0118972339485265,0.118756666424574,0.121895166802057,15.4529678350879,0.857884998815336,0.674875969887004,0.176398313230938,0.240225682264005,0.145545336412443,0.411299241976613,0.159370699715123,0.0364745208872962,NaN,NaN,NaN,NaN,1.96262077332345,-97.9255988407311,1.71219517316088,stable,stable,1,0.533186902490933,0.16094372029779,0.180661116415119,0.899757721487584,0.335313183816692
41,1.89167146455674,2.67051935195923,-0.263810258828275,-1.8606382958683,1.89167146455674,-0.0472703386949989,-0.0259282231287713,0.0539143549989728,-0.0062165961250475,-0.183310018266978,0.183523503166305,0.0118363960720627,0.139358110813228,0.142352706948655,15.4592585723124,0.963142694685301,0.60352054960342,0.176296082467751,0.240274263579033,0.11331600480098,0.428979326404778,0.159577259617544,0.0371662092301829,NaN,NaN,NaN,NaN,1.94919332297993,-97.076725643542,1.52659475473274,stable,stable,1,0.532916265271528,0.185125073082038,0.195513255520521,0.899542461846713,0.349637331199564
42,2.6134347641468,3,-0.634002657728494,-2.50020436312713,2.6134347641468,0.00876467148501869,0.0039794186484471,0.00962575913992804,-0.0306214328599484,-0.325777845791131,0.328497879066684,0.0212115703539608,0.20171377161031,0.204331797343158,15.3284517530914,1.89400216893167,1.71040473760853,0.0262717282865524,0.0744912601009367,0.121069980465307,0.466013088023371,0.000494401838562322,0.00510458218231571,NaN,NaN,NaN,NaN,2.97766096785849,-102.83550377438,2.00056077862302,stable,stable,1,0.737782296574446,0.0887419005759557,0.0553210861987058,0.958543795876765,0.346191119793197
43,1.81696228551216,2.65456938743591,-0.244866180904209,-1.77611124074326,1.81696228551216,-0.0619166223513234,-0.0315011350313106,0.0694693431065623,-0.00781547353662164,-0.171279636771966,0.171714039576756,0.0110798042875315,0.179672994433705,0.182581609352739,15.3752114658286,1.19742269337333,0.922210699388765,0.176802571961872,0.240290312083477,0.162449847985008,0.430756892315268,0.159803781997297,0.0369067251867643,NaN,NaN,NaN,NaN,1.87761184680711,-96.9149867627548,1.93439740315028,stable,stable,1,0.521039598007123,0.201197644169048,0.20516311695198,0.894944451647362,0.327800067562219
44,2.54037040873216,3,-0.626247752481813,-2.42809492813356,2.54037040873216,-0.0279650651524877,-0.00555915358551536,0.028512261530265,-0.0278159090979427,-0.309230503806541,0.311750077903637,0.020123155341526,0.221961012270873,0.22378946410861,15.3411651940113,1.68284707334794,1.35795754267294,0.0627021014518557,0.240334040508213,0.116032001295022,0.499691260240345,0.00191127264594874,0.00917513725894902,NaN,NaN,NaN,NaN,2.70268226585959,-102.84402520654,2.01850516834739,unstable,unstable,0,0.722190001816964,0.10864390598248,0.0693722116475072,0.944756913005337,0.348430221646657
45,1.68912200133006,2.34549498558044,-0.230435654429586,-1.66122805409951,1.68912200133006,-0.0361421098490851,0.00905343946636863,0.0372587824615155,-0.00490312058223154,-0.145046431654458,0.145220868759689,0.00936769624744964,0.109431865178988,0.111775336486232,15.4397725649991,0.951533000325529,0.848235177753941,0.177283422447023,0.240222533314008,0.144694675412383,0.437956998659125,0.15955700930044,0.0374821519904592,NaN,NaN,NaN,NaN,1.74484723470437,-96.8322370152764,1.94118971732124,stable,stable,1,0.472787600985262,0.154514698240948,0.177252918751396,0.897217253091578,0.335691255372274
46,1.65880486130714,2.4460437297821,-0.216006304632763,-1.63261807121011,1.65880486130714,0.00115559485406566,0.00131056253346682,0.00174727605743054,-0.00457515274387805,-0.139198808891725,0.139369888197053,0.00899368558306516,0.115565828723382,0.116728037978292,15.4479489921365,1.59757744779308,1.41636863559181,0.0317208722905731,0.049657968400218,0.103862806522386,0.375177751937107,0.013793215476212,0.00620339327784108,NaN,NaN,NaN,NaN,1.71876069037497,-96.5690723186371,1.73986000411749,stable,stable,1,0.465693570610897,0.177449079350728,0.114855544973625,0.960458558913832,0.353838752656717
47,1.76191759028402,2.71518230438232,-0.160613851504804,-1.73088414303141,1.76191759028402,-0.0596814537304849,-0.0289472188383622,0.0663311193774087,-0.00469723365741058,-0.163795864538638,0.164030378439453,0.0105804843437997,0.17456910691486,0.177291603167081,15.4386288205996,0.997456602636503,0.780050133151442,0.17775019616807,0.240262862841542,0.138901771832687,0.368764806383003,0.159587139825414,0.0350564108431352,NaN,NaN,NaN,NaN,1.8330973949862,-93.5355183886098,1.91865958067023,stable,stable,1,0.505303011375822,0.226645265891309,0.21966256299611,0.897158777563345,0.338265879185473
48,1.70823197948689,2.44137406349182,-0.191431603592062,-1.68633187034027,1.70823197948689,-0.0389288941043084,-0.0238381482498839,0.0456477393544073,-0.00387805272709512,-0.150264156416105,0.150379549943938,0.0096998842041239,0.122247369898051,0.124779857640286,15.3945951341592,1.01083009522088,0.710721177173481,0.176592699163842,0.240206571945506,0.148582262784428,0.477128135110585,0.159697409435526,0.0358891316521079,NaN,NaN,NaN,NaN,1.76093856199151,-95.8152911333806,1.90332017357692,stable,stable,1,0.480484499391229,0.173325721116083,0.188022652413479,0.898177176134981,0.333963438762477
49,2.62089875260989,3,-0.671521967302533,-2.50096573821246,2.62089875260989,0.00792977401337206,0.00301079786205522,0.008482111745863,-0.0323530656941942,-0.325553436989354,0.328555226698044,0.021202264467054,0.193214354742762,0.195850297900846,15.4089058380214,1.50640584074786,1.32171281025754,0.031843799881255,0.0716407936163035,0.10545723176553,0.46033699232906,0.0131673054686586,0.00590571542811423,NaN,NaN,NaN,NaN,3,-103.690253195533,1.71704774326739,stable,stable,1,0.738076393609473,0.08685283448285,0.0601113693365089,0.961857167801473,0.35313011921532
50,1.65990617161705,2.28058004379272,-0.159439405671036,-1.64211008952928,1.65990617161705,-0.0359228373297468,-0.0183380780931478,0.0403328073653427,-0.00285006046768593,-0.142185588159015,0.142262402045312,0.00917650660312491,0.113949189626795,0.116357388036849,15.406026274167,1.02967698177769,0.730596075141963,0.177204342887736,0.240173956102547,0.128343001653784,0.455861495305124,0.159371676716041,0.0364094092950687,NaN,NaN,NaN,NaN,1.72627812567413,-94.411640590645,2.41023368614325,stable,stable,1,0.465913123371917,0.147045969256505,0.17229922307035,0.897567111680335,0.342958665931652
51,1.57768204017561,2.56200647354126,-0.135066804285101,-1.55040034636092,1.57768204017561,-0.0566822272635624,-0.0201736107522405,0.0601651847694416,-0.0036391532639536,-0.130861997711463,0.131042216121229,0.0084522311452935,0.15498929295516,0.157086273746286,15.3832688064917,0.949106160856135,0.793034058601053,0.176598771085919,0.240211376820612,0.132948328033011,0.469088457422169,0.159503435743409,0.0374706458453962,NaN,NaN,NaN,NaN,1.64198518080473,-93.7945426045898,2.14882501217637,stable,stable,1,0.452132465462754,0.232503281381668,0.224018074113286,0.898012369875591,0.340911854207551
52,2.62362844705582,3,-0.626554006258513,-2.51629709933154,2.62362844705582,0.00431635489556591,0.000946417179737631,0.00441889409949801,-0.0291415402455837,-0.32922409192624,0.331703070204358,0.0214083565756889,0.192843394955877,0.195416098454938,15.4228086123187,1.70540434892738,1.40145038536808,0.0270554418445935,0.0556616424669232,0.103080215472128,0.40093138490408,0.000698195704341575,0.0057275480768396,NaN,NaN,NaN,NaN,3,-102.899260755177,1.98235623721136,stable,stable,1,0.738717472239205,0.0854937299973493,0.0536892919555536,0.962061277593953,0.354186570901276
53,1.70058240128212,2.6740882396698,-0.144625164478494,-1.67030733115685,1.70058240128212,-0.0578663717946513,-0.0252603511046378,0.0631395464238253,-0.00422495100610599,-0.151602642294727,0.151828087423731,0.00979556254488671,0.16947904092714,0.171913837413471,15.3702356681566,1.17286744446831,0.919532960918541,0.177797609175238,0.240250899642951,0.167402716608526,0.467360290220258,0.159389962757061,0.0360267558158814,NaN,NaN,NaN,NaN,1.76767167051157,-93.7767495596924,2.37253755801376,stable,stable,1,0.487871407824593,0.230614397148262,0.222309260215042,0.894660906512913,0.325598792618433
54,2.68161696518583,3,-0.609330028952724,-2.56659526394323,2.68161696518583,-0.0360138267794893,-0.00323353569306893,0.0361586984331767,-0.0257801633891176,-0.340382193434695,0.342490630007112,0.0220997252936207,0.20360640599618,0.205738591075066,15.4486653053593,1.42430583067445,1.20963554232941,0.0630977420981728,0.240203751166393,0.105732080311527,0.3947630150121,0.00187221297040295,0.00588022736060471,NaN,NaN,NaN,NaN,3,-101.106544404973,1.72719884588318,unstable,unstable,0,0.756245575597902,0.0782652775459367,0.0499295256758398,0.947755875305883,0.353007964305988
55,1.62676090366986,2.27122664451599,-0.148380023462059,-1.60835289044293,1.62676090366986,-0.0390313883063055,-0.028459486497202,0.0483051927312377,-0.00290576242886025,-0.137659164395558,0.137741839971818,0.00888803042432565,0.131460913455045,0.133796691422715,15.3501009672219,1.20513583908014,0.945470556473981,0.177515307104747,0.240190850108154,0.147399062586933,0.478432978347694,0.159398677670295,0.0351246130625138,NaN,NaN,NaN,NaN,1.6954412846166,-94.4207914550518,1.51576969697855,stable,stable,1,0.46056224592984,0.153860743691106,0.175932889525203,0.894344724768273,0.334489305516919
56,1.71092893262704,2.70803618431091,-0.109186314328274,-1.68256830672431,1.71092893262704,0.002445415900152,0.00682113470220686,0.00724623609540614,-0.0030432859321524,-0.152599388553523,0.152775406730001,0.00985657316996639,0.178717802735553,0.179973416808182,15.4695802946122,1.3405891450218,1.21251663693926,0.030600538923411,0.0471491009953781,0.0968207267227715,0.39426117653169,0.0110908445365797,0.0050064597005251,NaN,NaN,NaN,NaN,1.73280982852964,-92.1431804697514,1.80308910539712,stable,stable,1,0.492242398728848,0.225677608246362,0.142156359986488,0.964639613680029,0.35696856590099
57,1.6151122381898,2.29978084564209,-0.187552352627688,-1.59010137773892,1.6151122381898,-0.0402828903394756,-0.011754175615936,0.0419627441728074,-0.00409297418163885,-0.133983260170289,0.134145053367371,0.00865563315801909,0.119374901684729,0.121604605372724,15.3648167740392,1.0290424590221,0.972137092927971,0.176393283960989,0.240225197114695,0.13411140757709,0.430163503440924,0.156527730066846,0.0422825909734289,NaN,NaN,NaN,NaN,1.65239533729994,-95.8334835366937,1.66571017117816,stable,stable,1,0.455017517925158,0.16174360644178,0.181989531521479,0.896079804397041,0.340394929965738
58,1.625359910686,2.39524054527283,-0.0937625493925421,-1.60660941751578,1.625359910686,-0.0453600734683322,-0.0167310348858675,0.0483473245733888,-0.00204524243703836,-0.137308216819883,0.137392793637054,0.00886443053077157,0.12905640428018,0.131392544374873,15.3829425371666,1.08311655007318,0.914528385017807,0.177540471459848,0.240203252522678,0.139500495277209,0.446899847158659,0.159601935175809,0.0351533581833763,NaN,NaN,NaN,NaN,1.68060545220575,-92.4282145747537,2.48711720271093,stable,stable,1,0.459707818391241,0.182086818953824,0.192969324123175,0.895533982637218,0.337999779876796
59,2.50957978170452,3,-0.503205335692884,-2.42386744006824,2.50957978170452,0.00693465757906618,0.0046945708154438,0.00837427434946555,-0.022680713175475,-0.308923532424341,0.310573372796082,0.0200616605205607,0.220161533120012,0.222576199084924,15.3239117506362,2.1261460687745,2.13256050670484,0.0231329291844305,0.0589938453876262,0.152079728126861,0.441501132348487,0.0151900888129299,0.00834776534233874,NaN,NaN,NaN,NaN,2.78982386220964,-100.41262924442,1.67053228841429,stable,stable,1,0.713736514938191,0.111879832747218,0.0769146012654327,0.95497226945759,0.332409009721395
60,1.68005273068273,2.36088609695435,-0.084108038653962,-1.66176679960892,1.68005273068273,-0.0464507343719483,-0.0160103591852377,0.0491324976459942,-0.00192434472712471,-0.14677611208551,0.146856002147813,0.00947248599262003,0.130973148909051,0.133448493341607,15.4219738124934,1.08853953833762,0.668798165026659,0.176833663045722,0.240205171500777,0.134243870482482,0.411410273477549,0.15687769593718,0.0365165302311814,NaN,NaN,NaN,NaN,1.72864210057146,-91.9462754292346,1.53613260914205,stable,stable,1,0.474703760183717,0.162195131979545,0.180319237870136,0.897775515093563,0.340336057563341
61,1.61588823430392,2.36912608146667,-0.187005543501387,-1.5949988520999,1.61588823430392,-0.042886619394331,-0.00736317955079599,0.0435141188141443,-0.00356619502027668,-0.134877049975366,0.134985729171278,0.00870593867213792,0.117850195875737,0.120123592546233,15.4567103164408,0.914213217702872,0.601535656817028,0.177207038228067,0.240201765458306,0.134930113263652,0.384999332685076,0.159513800864328,0.0360806545838362,NaN,NaN,NaN,NaN,1.6541677253945,-95.777639022521,1.87780149685437,stable,stable,1,0.454928247656959,0.177456104060879,0.190488923073381,0.89948702544331,0.34003106077171
62,2.60837657292684,3,-0.53029460250548,-2.52090455214237,2.60837657292684,0.00688692150447079,0.00419780820904192,0.00806543746914214,-0.0238332321738254,-0.330976533156087,0.332674747730408,0.0214761396073543,0.201200968002287,0.203869627210618,15.4338430398267,1.92046086069281,1.67350649309208,0.024563937172844,0.049591805026752,0.115140358106658,0.387608613151588,0.000221919045825688,0.0103740735017924,NaN,NaN,NaN,NaN,2.96888331606625,-100.576107342626,2.09710866076191,stable,stable,1,0.736341011555947,0.0895939346274706,0.0576273818278041,0.959479716490982,0.348826507508152
63,1.55209458806888,2.24945306777954,-0.0705557962212342,-1.54004263303304,1.55209458806888,-0.0322814420738973,-0.0177516442106575,0.036840363387895,-0.00101554108023634,-0.125594762134683,0.125626579604492,0.00810700346104089,0.119567957613471,0.121701211766263,15.3531629310551,1.196768053601,0.964889346755526,0.177720138461429,0.240198692622002,0.152628206271885,0.440411161180754,0.159442526672058,0.037648816276453,NaN,NaN,NaN,NaN,1.60300708299886,-92.1234906695166,1.94991850123017,stable,stable,1,0.438232132504953,0.163659724556013,0.182749658567172,0.894155479766484,0.33216524165694
64,2.6751906759945,3,-0.643758960553491,-2.5584845409024,2.6751906759945,-0.029859559882008,-0.00509367319593593,0.030290903304032,-0.027686322579265,-0.336900086697672,0.339238004090504,0.0218946030017572,0.199421240690447,0.201543244480487,15.4315617265718,1.63178599716538,1.27718158803961,0.0632600694173684,0.240421086353232,0.11249207734061,0.389365804386588,0.0018493823889453,0.00733338739946955,NaN,NaN,NaN,NaN,3,-102.201792877698,1.63190538422813,unstable,unstable,0,0.753692829161296,0.0786354301736442,0.0506698921596865,0.945513791407562,0.350003521181951
65,1.51510996315755,2.14583849906921,-0.138489047601201,-1.49956267795681,1.51510996315755,-0.0287769592826722,-0.0120475986095539,0.0311970834824908,-0.00226859638376532,-0.118871361111651,0.118931629400784,0.00767403609662362,0.114317961369287,0.116364183141481,15.3613004565174,1.11465636904158,0.939956112111084,0.177535505797004,0.240171293185243,0.151852919465048,0.508181907878978,0.159413657866984,0.0371832302562726,NaN,NaN,NaN,NaN,1.55228808798252,-94.2268777224065,1.62801709583616,stable,stable,1,0.427302160136976,0.147633385885248,0.172951720777342,0.895088863321013,0.33250981357109
66,1.56883479317029,2.30832839012146,-0.12057692013705,-1.55328996835663,1.56883479317029,0.0010124457403542,0.000549452629998673,0.00115193080077487,-0.00215062041412882,-0.126091377888731,0.126151802865223,0.00815035610955729,0.103992516192446,0.105013207732739,15.3265754257284,2.20351145581854,2.11686270727667,0.0237607623244319,0.0757644823968367,0.131392066535932,0.466129890382216,0.000184558400235229,0.00588200352314864,NaN,NaN,NaN,NaN,1.60696450398557,-93.5145725727472,2.10704103924184,stable,stable,1,0.439358586391959,0.166597246627488,0.102179284304207,0.954173821842036,0.34160352598403
67,1.6456073595553,2.49623918533325,-0.0929586736437232,-1.63164882270226,1.6456073595553,-0.0363319514804044,-0.0132957891285944,0.0386883536342205,-0.00163542633184411,-0.139830861286666,0.139874465746813,0.00902289640386599,0.106669606513949,0.109056587315935,15.4299047699034,0.990936246877824,0.720763890045565,0.176644721557661,0.240180509005564,0.121105134265171,0.353203752614285,0.159456581506431,0.0372982195112533,NaN,NaN,NaN,NaN,1.70472744872138,-93.0615211949791,2.30397563459905,stable,stable,1,0.460639946677934,0.198485025632979,0.203523596073607,0.898228566716771,0.346175495882146
68,1.59986535789204,2.23766684532166,-0.129140335121935,-1.58436297479324,1.59986535789204,-0.0360836522891709,-0.020542793321568,0.0415215163497005,-0.00231854932630249,-0.131548712280475,0.131606808211869,0.00848842496682597,0.0973049736608603,0.0995717471108615,15.4492012638515,0.869453560342378,0.703739205036322,0.176254343197322,0.240166434421592,0.120919414851362,0.41729221339301,0.159427403899704,0.0371337022140442,NaN,NaN,NaN,NaN,1.6346567991892,-94.1375227104005,1.65847074970079,stable,stable,1,0.446545111526717,0.151117612669108,0.175030355998359,0.899512028101935,0.346258037843839
69,2.61792920390765,3,-0.392756071241067,-2.55492638464065,2.61792920390765,0.00565866397727669,0.00194932367988848,0.00598500967557304,-0.0165862499141541,-0.339574743299842,0.340531813645956,0.0219872582255383,0.198004551527029,0.200691050194186,15.4184915987127,1.98001243175691,1.85732336248879,0.0227155034966301,0.0575779335257501,0.126575371644767,0.416123725097035,0.000296761465245644,0.00500658661074381,NaN,NaN,NaN,NaN,2.97762147861884,-97.4745863886534,2.12916728430338,stable,stable,1,0.73825266441421,0.0870631808946341,0.0541903794706955,0.958491752725469,0.343744279268993
70,1.69116003659307,2.54309010505676,-0.0831448258641696,-1.66682396691002,1.69116003659307,-0.0557186087186261,-0.0444268700717118,0.0712622630984178,-0.00203837905272093,-0.151273061744838,0.151398129861455,0.0097645058634934,0.17009262116552,0.172666503074278,15.4765333978352,0.916163590682665,0.585769490973248,0.176609199056139,0.240252578333041,0.150666713590249,0.35388891684757,0.159013491314263,0.0357700832995744,NaN,NaN,NaN,NaN,1.74106956136438,-91.9626622500687,2.31999151386678,stable,stable,1,0.485509310373007,0.204749013639041,0.206529374007791,0.899894497687491,0.333037016182112
71,1.60946285319166,2.32087016105652,-0.195674909085883,-1.58098666107866,1.60946285319166,-0.049900405834871,-0.0147470516329208,0.0520338931308129,-0.00471911352612451,-0.133547637136845,0.133760804649276,0.00862685643510564,0.141073254059735,0.143280913320773,15.4722716780277,0.876604728972805,0.62821529535126,0.176846197690263,0.240189260457569,0.15065814519082,0.34327608028984,0.159579448724971,0.036359987956862,NaN,NaN,NaN,NaN,1.67774962146967,-95.9395937551425,2.37869107044617,stable,stable,1,0.457846276848598,0.169606191343575,0.185909728041961,0.899753315249465,0.333040824359636
72,2.62354161421458,3,-0.607171791065189,-2.52131414662519,2.62354161421458,0.00554916476172368,0.0072293521501937,0.00911354826970627,-0.0278763609040854,-0.330992958794039,0.333191150568912,0.0214963267859253,0.193407485072079,0.196221256297001,15.4463578057817,1.4061676063387,1.04479559807792,0.0329936357295869,0.0574365075571084,0.0901180145534308,0.446905927176936,0.0235817032263337,0.00506729759028208,NaN,NaN,NaN,NaN,3,-102.28205700878,1.57469601415023,stable,stable,1,0.738855348383288,0.0863739539844992,0.0641477830493746,0.964245614100504,0.359947549087364
73,1.6713301802979,2.5688464641571,-0.170829348706926,-1.64160960349035,1.6713301802979,-0.0542473240991565,-0.0244160951179174,0.0594888045999087,-0.00477542334240524,-0.145787285155246,0.14602253233416,0.00942021266381071,0.159343330129529,0.161614764454378,15.4142353895157,1.10287625075484,0.862105636420472,0.175944362285916,0.240206716270657,0.153425258611606,0.422248904223165,0.156719363801784,0.0404755437130547,NaN,NaN,NaN,NaN,1.730743683828,-94.7490683234343,1.52346711836555,stable,stable,1,0.478011000970316,0.212847444711637,0.212079896937573,0.896588675457808,0.33181099617262
74,2.67103661864044,3,-0.595648524840635,-2.57092851437048,2.67103661864044,-0.0252120271809327,-0.0100197935152847,0.0271301046194266,-0.0252813184867794,-0.339286420803198,0.341209424233244,0.0220210415328624,0.198550025311372,0.200574501981398,15.4069208579009,1.69171683013908,1.258081362272,0.0632815240690615,0.240198422878552,0.11684996939664,0.428197192727184,0.00189226834163272,0.0100836595317803,NaN,NaN,NaN,NaN,3,-101.440236798872,1.75822047922991,unstable,unstable,0,0.75239133203373,0.0789906133194625,0.051902161427798,0.945182252167954,0.34806668026816
75,1.66833848166628,2.55777835845947,-0.201593290641015,-1.63396449849172,1.66833848166628,-0.0570006664097228,-0.0159882437951391,0.0592005060012607,-0.00586804506970686,-0.146214773132047,0.146526247097634,0.0094513159968395,0.178450463585868,0.180941037430318,15.4545826681698,0.960853827429075,0.725793401896096,0.176336769496978,0.240253063221989,0.164376568736984,0.395165532667617,0.159374330843658,0.0378166788804668,NaN,NaN,NaN,NaN,1.72844746755899,-95.0560971705178,1.6824590954727,stable,stable,1,0.481078469263738,0.2109773983787,0.211170994550631,0.898579387021099,0.326943747228007
76,1.75291063686212,2.66584396362305,-0.234519392470407,-1.71219117964299,1.75291063686212,0.00351794299638059,0.00213616647716469,0.00411571745190865,-0.0073864707130385,-0.158386786827996,0.158811010381031,0.0102513455089205,0.18678946531904,0.18808115761087,15.4315241706857,1.83052366045997,1.60113173939544,0.0272683631636084,0.0525092776794681,0.130065567013986,0.410419006287895,0.00253075364063725,0.00661416708554959,NaN,NaN,NaN,NaN,1.80133462105751,-96.2777836497926,1.95670118556858,stable,stable,1,0.505059068018739,0.206164546720725,0.127228659095747,0.959402811705046,0.342193081327117
77,1.68919108189693,2.43617177009583,-0.136089993637344,-1.66644193317117,1.68919108189693,-0.0475951904824597,-0.0279568670991322,0.055198628380243,-0.00312950473583998,-0.147817262124785,0.147938317857309,0.00954236131713156,0.139189600543461,0.14161687631194,15.4268300481158,0.937876155775359,0.709681684740736,0.176958378580339,0.240194682822855,0.132594248780225,0.360515360755768,0.1604107757045,0.0348114545561787,NaN,NaN,NaN,NaN,1.75923009576763,-93.8331549635916,1.63358589502487,stable,stable,1,0.478774330434903,0.178190403381129,0.190866630867268,0.89857571339149,0.341069222764345
78,1.78646576404572,2.44162964820862,-0.197865974005119,-1.76227474370127,1.78646576404572,-0.0412603118833795,-0.0260087201716728,0.0487736287524531,-0.004396480080416,-0.164168495713261,0.164307068762146,0.0105992838059918,0.134964803940724,0.137727841548184,15.3990149919742,1.04396402636528,0.836542080946199,0.176829801164194,0.240232621849116,0.152055420427379,0.447472359088401,0.159221299727713,0.0360324640353192,NaN,NaN,NaN,NaN,1.84421771642335,-95.6415120879709,2.17883264081764,stable,stable,1,0.503936438721828,0.156353705874603,0.177679959820629,0.896809694289027,0.332419813143387
79,2.62092528621356,3,-0.407604985424458,-2.55348832999823,2.62092528621356,0.00458968001350168,0.00340232150103574,0.00571322625341819,-0.0175756281583646,-0.339221175611834,0.340275834618748,0.0219772043115566,0.201384028376495,0.204067283304315,15.4006054290412,2.30969263596449,1.93526410858895,0.0199625752074192,0.0533829700694623,0.140964568621911,0.382336672889306,0.00035290379002773,0.00545983584583248,NaN,NaN,NaN,NaN,3,-97.5958361626102,2.27329042229538,stable,stable,1,0.739726866317811,0.0863392354150763,0.053945782230977,0.956665480831942,0.337349080612484
80,1.79758427378272,2.67652654647827,-0.24233065574753,-1.75584260871524,1.79758427378272,-0.0641769981479027,-0.0327310683243531,0.0720417235005478,-0.00787222288909485,-0.167974907356168,0.168428122977428,0.0108630777037559,0.183076811767653,0.185880797503989,15.3888709738029,0.958374669243949,0.709147663635844,0.176793758194742,0.240271391490446,0.120227658196839,0.412367055680988,0.159562756569398,0.0348129980067011,NaN,NaN,NaN,NaN,1.84269174465958,-96.4089816842801,1.51371203110135,stable,stable,1,0.516531965842856,0.210969660664933,0.210157849098907,0.898501159715716,0.34656548524585
81,1.83132799223167,2.54197716712952,-0.204526185227429,-1.80270162555666,1.83132799223167,-0.0555070679250882,-0.0193890959204933,0.0587960171291767,-0.00519942920400444,-0.172564000405084,0.172766427674198,0.0111419829116014,0.142021558554145,0.144812549117864,15.4583850336948,0.891106189985298,0.579238586852554,0.176420443574058,0.240292594027608,0.123314118155992,0.413516774503356,0.159629094770167,0.0363895442379942,NaN,NaN,NaN,NaN,1.90149022471625,-95.3637271300002,1.85972159514037,stable,stable,1,0.517316641085351,0.170675334159032,0.186584026378805,0.900237069252102,0.345193725264004
82,2.58948491891225,3,-0.411190417650773,-2.52282073176472,2.58948491891225,0.00808484746103743,0.0039566423510315,0.00900109866417536,-0.0176517598270593,-0.332050260542756,0.333121170920771,0.0215049911844608,0.207371272277649,0.209989124484131,15.4126245179159,1.7848856220921,1.85811914810138,0.0163711496027637,0.0510056326174419,0.124242694669356,0.412761604710856,0.00014146250372262,0.0117335920248308,NaN,NaN,NaN,NaN,2.91783086718893,-97.7855854258006,2.414624207346,stable,stable,1,0.73252713660676,0.0940160946665088,0.0607392897600841,0.963190816289955,0.344781024591397
83,1.70427880562893,2.40602445602417,-0.299463923746258,-1.66544829449037,1.70427880562893,-0.0444895714961446,-0.0176177777682037,0.0478508940919642,-0.00704492586934444,-0.146716763579529,0.147030399363448,0.0094836883507808,0.116286976051872,0.118722083400385,15.4042287073144,0.958965756913857,0.784951673288884,0.177170935272434,0.240195172905492,0.143162798961612,0.456829832278326,0.158969953722143,0.0357219550243261,NaN,NaN,NaN,NaN,1.75027764965131,-99.5200046041142,1.63340580298786,stable,stable,1,0.47821876484779,0.16666543525579,0.183642375745898,0.897712323983618,0.336372089350395
84,2.66230790873608,3,-0.440303826013193,-2.5942489468856,2.66230790873608,-0.021277479891543,-0.00967574002624976,0.0233741544358419,-0.0182159188698829,-0.344203672109122,0.345309379999869,0.022279911200219,0.202410684378844,0.204484031678339,15.3902200396807,1.42309691314134,1.03312220098102,0.0632213105069079,0.240264715111245,0.0988524545828683,0.386607570643427,0.00186021360305033,0.0113107860153298,NaN,NaN,NaN,NaN,2.95681470906161,-98.270421652992,1.74126032342804,unstable,unstable,0,0.750845581998622,0.0802659821809531,0.0530993640064112,0.949090480278442,0.356065575740947
85,2.01491088755179,3,-0.453542497556336,-1.9368359032671,2.01491088755179,-0.0880767941553699,-0.0204373058041751,0.0904168410044322,-0.01741326927369,-0.204537898433633,0.206047592266005,0.0132910253599007,0.195999867166772,0.199321246418333,15.3593977978133,1.15051094132137,0.803593918683341,0.175352601910226,0.240327719075639,0.152964364169463,0.422602227314084,0.159808239154984,0.0351099544131373,NaN,NaN,NaN,NaN,2.10680641889481,-101.731697741666,1.5,stable,stable,1,0.577173819297477,0.23822147115166,0.22672602291011,0.896970018001993,0.332015838146905
86,1.97510371049245,2.84200501441956,-0.548320421972139,-1.88420092647963,1.97510371049245,0.00310816283135483,0.00570987538848267,0.00650102708333197,-0.0186175487052994,-0.185974493808868,0.187415777114351,0.0120999021025385,0.137152931277455,0.138651278918034,15.402219850505,1.83178131038216,1.85074237316814,0.0187036195142849,0.0475000707415788,0.129442355907353,0.414552067158386,0.000312862828338881,0.00613561249247763,NaN,NaN,NaN,NaN,2.01104491577433,-105.279667622794,2.30625513003459,stable,stable,1,0.554424578581594,0.196244648348876,0.1201169709707,0.961714075586391,0.342470064041176
87,1.98795694923725,3,-1.15002764248686,-1.58749331230939,1.98795694923725,-0.0828982845798308,0.0118843036819207,0.0837458193600297,-0.0771346915734057,-0.138883081560525,0.165742644023011,0.0106904673462124,0.203021268171621,0.205580173098854,15.4548257871094,0.921020564747386,0.972728450396175,0.176956402292991,0.240307368414133,0.15235713386548,0.410542109980687,0.159495107501436,0.0373746111266606,NaN,NaN,NaN,NaN,2.06469467336038,-124.238920485483,1.55157351690316,stable,stable,1,0.571237887749705,0.243063086637624,0.230315334110079,0.896642342305948,0.332285718282009
88,1.95057509058998,2.85630798339844,-1.10417188246512,-1.58466328414618,1.95057509058998,-0.0550999527579145,0.00486804499769829,0.0553145790549293,-0.0685981586567729,-0.136146602789221,0.156856945028695,0.0101165482822737,0.166568450244247,0.169056234687426,15.4405232836253,0.751590985418897,0.965675278947578,0.175893488702002,0.240246446413649,0.151063449986706,0.471211885980066,0.159502746900613,0.0351139234575616,NaN,NaN,NaN,NaN,2.00959748573364,-123.70580417537,1.54337707773886,stable,stable,1,0.553964604428146,0.213930907041974,0.212017353397903,0.89856044928612,0.332860688894798
89,2.62947590708733,3,-0.24006108549679,-2.587023653807,2.62947590708733,0.00515124081538504,0.00546645795871531,0.00751115467504768,-0.00937975376881178,-0.347576455986384,0.347995603356302,0.0224591810577233,0.192344112247298,0.195151946639679,15.4323687748447,1.60907554554893,1.45785528463084,0.0306241765491097,0.0504156779556314,0.11230413102687,0.431052942012137,0.0115637620407853,0.00667808160999181,NaN,NaN,NaN,NaN,3,-94.0907171926139,1.79198501936149,stable,stable,1,0.740223964551223,0.0847449659291104,0.0584148226660951,0.960590598059747,0.350087052876946
90,1.94406113738105,2.87284517288208,-1.05707774825022,-1.59900330212438,1.94406113738105,-0.0677096491382071,0.0020142184256246,0.0677396018757509,-0.0652475139260418,-0.139991160767726,0.160290650236479,0.0103383639928133,0.194772192923749,0.197237233749245,15.4603757260153,0.853573694170897,0.940817522528983,0.176635945942886,0.240314003237265,0.142896322569826,0.37104841540537,0.159589985658123,0.0364696279760832,NaN,NaN,NaN,NaN,1.99637079272466,-122.311062912018,1.5,stable,stable,1,0.557863750051463,0.221395334998285,0.217027766414086,0.897583238897344,0.3364905233023
91,1.85498628162202,2.88983702659607,-1.12498838621841,-1.4423564403717,1.85498628162202,-0.0801638410807898,0.00556024488065264,0.0803564418074801,-0.0741791091058973,-0.115176933869215,0.143555470553094,0.00925909727275247,0.200941287350527,0.203198184651263,15.4573682630883,0.90576308783272,0.872352545427396,0.176325476024361,0.240276140282761,0.163887099396593,0.464544533725741,0.159292947360324,0.0374242159825399,NaN,NaN,NaN,NaN,1.94546366280019,-126.251978914843,2.07234949835089,stable,stable,1,0.535302645362792,0.247573431950532,0.232949730475629,0.897866353440776,0.32716128915707
92,2.62596160054207,3,-0.48557032411057,-2.54858380500494,2.62596160054207,0.00449507336252654,0.00490551913419134,0.00665355562916648,-0.0211605675472401,-0.337635819131864,0.339040870804252,0.0218846925160325,0.193185056986134,0.195816972071306,15.4231438837282,1.77209319251852,1.69800187742253,0.0151415151821216,0.0476888566329595,0.122360026865009,0.460349715688144,0.000139066123357818,0.00958698386979115,NaN,NaN,NaN,NaN,3,-99.2513675644137,2.43529598177566,stable,stable,1,0.739419821225479,0.0853784584100485,0.0547750581646172,0.965164209716545,0.345617765837774
93,1.69699214834745,2.4386932849884,-1.02524858998302,-1.34021445920093,1.69699214834745,-0.0378009272195128,0.00434947027308879,0.0380503349566254,-0.0569368861065762,-0.094975907526617,0.112844258788299,0.0072774796513862,0.119272552992844,0.121153411360263,15.4690566511032,0.792492449398375,0.752819178388132,0.176671141480503,0.24020928496995,0.0974758712560233,0.376411549172208,0.159350701567685,0.0377025222890812,NaN,NaN,NaN,NaN,1.74681180591764,-126.657123786368,1.93971263823077,stable,stable,1,0.476761921831373,0.173858650486262,0.18884773242696,0.899522695041426,0.356677390552879
94,2.66740456216201,3,-0.269884959867237,-2.61754230522087,2.66740456216201,-0.0289034379643444,-0.0122440984088334,0.0313899135392868,-0.00951300780261959,-0.350136188062737,0.350601002578072,0.0226217003719511,0.208462035609052,0.210627898997533,15.4424308603993,1.49156941432833,1.08501055812644,0.0627235717820551,0.240478644128667,0.108741926734007,0.448369418534051,0.00185304544837505,0.00763207446915617,NaN,NaN,NaN,NaN,3,-94.2734617915732,1.8222079626052,unstable,unstable,0,0.75343346304271,0.0805887909957498,0.0519521501592491,0.948393657182542,0.351670254784886
95,1.81470108680985,2.65614414215088,-1.15162036180039,-1.37697113683886,1.81470108680985,-0.0696846570228636,0.00908599914790795,0.0702745103498411,-0.0732181827662924,-0.101670370099951,0.130346303690896,0.00841014585027548,0.143645306218231,0.145845338697092,15.3807163269954,1.05936082581772,1.21992395278711,0.177641645950183,0.240217943143973,0.165954904929539,0.522997452707868,0.159478585550695,0.0376525004634703,NaN,NaN,NaN,NaN,1.86493072097439,-128.583435678336,2.42861691396376,stable,stable,1,0.513089357555377,0.202208347682537,0.205896198315739,0.893270510907299,0.32624226447576
96,1.72207073748112,2.48047041893005,-1.06046504795771,-1.33515032027202,1.72207073748112,0.0035648898517666,0.00274657600392271,0.00450023548278893,-0.0619203199445488,-0.0949118545255445,0.117221962719267,0.00756494745825888,0.138169886647497,0.139085310449908,15.4277989054556,1.49249527404435,1.51591967308798,0.0260341713623994,0.0511869609800991,0.111143672066965,0.45480448107272,0.0010015053739962,0.00722388311936731,NaN,NaN,NaN,NaN,1.76269102467469,-127.19753908103,2.00510405905028,stable,stable,1,0.487035925418279,0.171464971497855,0.105950962987128,0.963345368305618,0.350602812414682
97,1.77492575864403,2.60260272026062,-1.08593769412646,-1.38315328996544,1.77492575864403,-0.0534223769998785,0.0144895938311458,0.0553524949185556,-0.0650502666218141,-0.102477975293053,0.125246747627754,0.00807868379182058,0.135454137975523,0.137518682130339,15.4562719595351,0.869178600769366,0.968985848012748,0.176319090412872,0.240235394545675,0.157972715646982,0.414438051296659,0.15908627741758,0.0368712943238478,NaN,NaN,NaN,NaN,1.81622668042125,-127.513201967813,2.00693549273049,stable,stable,1,0.500817272064475,0.196375273765469,0.201937919835362,0.897397734124562,0.329789904156897
98,1.85591500308238,2.57882237434387,-1.1702712230041,-1.42433065216664,1.85591500308238,-0.0419134391288243,0.0144114912230977,0.044321862087226,-0.0736855176429463,-0.107659785908047,0.133707841629978,0.0086283676249235,0.132428279575335,0.134662085220992,15.3719265849021,1.12076296430618,1.26835393222628,0.177585319496788,0.240254717583919,0.169520084953181,0.536032471326959,0.159477044939152,0.0349438810423222,NaN,NaN,NaN,NaN,1.91962505408224,-128.853168090004,2.26185633974687,stable,stable,1,0.521843084532833,0.170779833249827,0.186053452423091,0.892435707493137,0.324657740020808
99,2.62487683653831,3,-0.16218523842104,-2.58680257622194,2.62487683653831,0.00347389253145715,0.00751440876790071,0.00827854265261809,-0.0061044279272694,-0.34746139246055,0.347756072498025,0.0224454644315589,0.191696450313064,0.194679029468443,15.4223941574913,1.67716768873916,1.52352824765218,0.0296553750813334,0.0521872562722425,0.113742479005836,0.478947439839715,0.0109842186275584,0.00674837735540545,NaN,NaN,NaN,NaN,3,-92.2002194325483,1.87031345862058,stable,stable,1,0.738902962303906,0.0859204445985259,0.0588880971066627,0.96002398724483,0.349447787108517
100,1.61979549519114,2.5510425567627,-1.01793008187686,-1.23048644255654,1.61979549519114,-0.0606148800871347,0.00895749595229522,0.0612731623283237,-0.0597787988614102,-0.0841795228885228,0.108505755559084,0.00699793053184515,0.175389295715475,0.177185347542488,15.4557143712545,0.857846197268958,0.7099765097749,0.175513518869276,0.240201103224796,0.114563263068444,0.369818809309122,0.157092472550626,0.0418765950075123,NaN,NaN,NaN,NaN,1.68546986904653,-128.540481584722,1.90616288882863,stable,stable,1,0.467382534892801,0.220764001947127,0.217505130587448,0.899924633581446,0.349082994191803
