scenario_id,mean_wind_speed,max_wind_speed,wind_velocity_x,wind_velocity_y,wind_velocity,wind_acceleration_x,wind_acceleration_y,wind_acceleration,wind_body_force_x,wind_body_force_y,wind_body_force,mean_wind_body_risk,mean_wind_gust_risk,mean_wind_risk_raw,min_thrust_margin_n,mean_abs_roll_deg,mean_abs_pitch_deg,mean_abs_vz,max_abs_vz,mean_tag_error,max_tag_error,stability_std_z,stability_std_vz,mean_imu_ang_vel,max_imu_ang_vel,mean_imu_lin_acc,max_imu_lin_acc,wind_speed_cmd,wind_dir_cmd,hover_height_cmd,gt_safe_to_land,label,success,onto_wind_condition,onto_gust,onto_temporal_pattern,onto_drone_state,onto_tag_observation
1,2.02341816538856,2.73605132102966,-1.24517419960157,-1.57775168401214,2.02341816538856,-0.0530786630323389,0.0150031464687442,0.0551583073821448,-0.0836622203527546,-0.131091212696486,0.159105137214547,0.0102611877844634,0.124424330569101,0.127067712274205,15.4539644982634,0.83281549601352,0.851665689489937,0.175766738182888,0.240276606764043,0.110275776138136,0.38771645949711,0.159517319332418,0.0367532367382035,NaN,NaN,NaN,NaN,2.0716688985117,-127.374480982322,2.31472368639318,stable,stable,1,0.564991719891791,0.170454816372641,0.186534289552895,0.898881421593886,0.350988543938606
2,2.30232099453608,3,-1.38982161232399,-1.79678093525633,2.30232099453608,0.0105591477506675,0.00616634794643297,0.0122278145315058,-0.109878182899628,-0.174895419004831,0.215893443446815,0.0139362175258309,0.229189657585871,0.230896806229804,15.4383890752503,1.6930560652929,1.76568637749293,0.0296224234093702,0.0780337602952848,0.116548997394569,0.492837890282061,0.00850223278665971,0.00726867168405293,NaN,NaN,NaN,NaN,2.42882567996652,-126.095851442396,1.85119679182919,stable,stable,1,0.660131626455583,0.159219542226824,0.101953648803155,0.958012954816283,0.348200445602414
3,1.80874818604009,2.51895141601562,-1.11370560079021,-1.41002504976265,1.80874818604009,-0.0373576847314552,0.0193889839758319,0.0420895391767345,-0.0674839798984263,-0.106434381801837,0.128890067198656,0.00831535603476059,0.131471354479286,0.133528936189948,15.4232563649707,1.04963983444014,1.08196364762582,0.177118656411618,0.240307335137153,0.198136702537161,0.416455469990869,0.159356285520897,0.0356199703189753,NaN,NaN,NaN,NaN,1.87319628751653,-127.297520073929,1.59833864626127,stable,stable,1,0.509038636848679,0.167512142260231,0.184285017622831,0.894692358720816,0.311939243316817
4,2.42719230622421,3,-0.720116950141114,-2.27899434888475,2.42719230622421,-0.0329407166429902,-0.0133413030478742,0.0355398534038759,-0.0325157532189214,-0.270626653644175,0.274434720566452,0.0177090396000037,0.23091959619649,0.232508061301472,15.4429906220578,1.46283909640142,1.25712565050872,0.0630644686813703,0.240061115428032,0.11344652161189,0.452811753797869,0.00185459861456924,0.00998265534160727,NaN,NaN,NaN,NaN,2.46779887999601,-105.553838771394,1.5,unstable,unstable,0,0.693752893920084,0.135397370890263,0.0856927450729348,0.94709661407645,0.349579323728049
5,1.82657668947363,2.59686875343323,-1.05578836887793,-1.47603782479014,1.82657668947363,-0.0454147916043007,0.00787148103977276,0.0460919028704779,-0.0602234111283116,-0.115225760340147,0.132572516477782,0.0085529413308989,0.139839054936323,0.141936512176374,15.4094325423005,1.06825967312919,1.08608272584987,0.177408022749931,0.24021983159976,0.185140782710136,0.465597085889179,0.156671791447109,0.0432090246748439,NaN,NaN,NaN,NaN,1.88084050141636,-125.058018224367,2.17667809701906,stable,stable,1,0.515474419628242,0.181765896583831,0.194403817869159,0.894369012633056,0.317715207684384
6,1.88173851291339,2.70163631439209,-1.04204140055876,-1.54576291578616,1.88173851291339,0.00692182385087374,0.00395796222151651,0.00797352559220051,-0.0606689467141303,-0.126655658291077,0.144063822634513,0.00929865736404211,0.151335313966482,0.152440940709457,15.4504766119692,1.51857719189051,1.87264758651793,0.0191106137614815,0.0517459786776504,0.119383601366998,0.430990311495011,0.000205722650848898,0.00895380395934526,NaN,NaN,NaN,NaN,1.9161886291726,-122.783489357006,2.29539734037014,stable,stable,1,0.532285124918794,0.185938818357945,0.114910652016522,0.963799355574621,0.346940621614667
7,1.91481395075921,2.50919771194458,-1.06949721721882,-1.57301993698083,1.91481395075921,-0.0476892892370858,0.00604211804437376,0.0480705262962719,-0.062337281514679,-0.131303295725426,0.148002338070365,0.00954507059481399,0.132911525991309,0.135281380562604,15.4598679230919,0.816573884899435,0.817139606860856,0.176611721035455,0.240274744410378,0.102964046008133,0.421859654291532,0.159470911532343,0.0365347862447648,NaN,NaN,NaN,NaN,1.96867067391655,-123.586570068552,2.02569241012728,stable,stable,1,0.537673329648311,0.142549276087691,0.169690903149934,0.89885781918987,0.354238201774163
8,1.8962817573223,2.87709903717041,-1.09422365294234,-1.51400335630091,1.8962817573223,-0.0681500798666022,0.0108206733682092,0.0690037706068714,-0.0694348634373142,-0.126431921802971,0.150917579473686,0.00973875257113562,0.195004023882072,0.197366288235839,15.3399880744319,1.17525287296378,1.26942500441146,0.176755815889499,0.240286782513615,0.189866658871785,0.511231694041438,0.159449623369764,0.0372928820718502,NaN,NaN,NaN,NaN,1.96461919299708,-125.030810267647,1.5,stable,stable,1,0.545148392933114,0.233334579243752,0.224428294847829,0.892413908733016,0.315614818279207
9,2.60591899673144,3,-0.798213148104438,-2.44641802607137,2.60591899673144,0.00439110674549454,0.00462292180730084,0.00637598811846018,-0.0423703684576878,-0.312290333066623,0.31728134204864,0.020476097585371,0.200976240177982,0.203413187078872,15.4353347587674,1.69437564008211,1.3145910033063,0.0280705562022563,0.0520215750356139,0.102237668167211,0.473178251286406,0.00354545161310798,0.00661588786562565,NaN,NaN,NaN,NaN,2.98365709536118,-106.900241715489,1.96927126903531,stable,stable,1,0.735594369877492,0.089837156890477,0.0578838278124607,0.962322841129391,0.354561036370128
10,1.86179154503102,2.88151168823242,-1.11465398958696,-1.45959663929856,1.86179154503102,-0.0528612997729115,0.0142289550621383,0.0547428550209245,-0.0715712809424569,-0.117584094062545,0.143999743171394,0.00929014078886806,0.185052694755834,0.187373639359697,15.3644674785786,1.03552366121646,1.15647902089646,0.177023026150144,0.240309730267555,0.146521161179808,0.473335252469742,0.159483797591721,0.0352524497698943,NaN,NaN,NaN,NaN,1.92399487038037,-126.353098118705,1.72055581642432,stable,stable,1,0.533952473213545,0.239473222307484,0.227384693846631,0.894265608708326,0.334879483920085
11,1.84872028860105,2.66522693634033,-1.13804413079038,-1.4417304977561,1.84872028860105,-0.0426479741496986,0.00575522309680227,0.0430345476561254,-0.0700862420236356,-0.110130083381439,0.13347028042066,0.00861314328721062,0.13322168392713,0.135605480237204,15.3679307140088,1.16036507948413,1.22582853944265,0.177341292597458,0.243283462329703,0.180598496425008,0.50955464090217,0.156733298143385,0.0403915003186214,NaN,NaN,NaN,NaN,1.90759543141243,-127.844704273722,2.41756305723023,stable,stable,1,0.520113173007721,0.191603662811628,0.199309259603939,0.892580689552561,0.319734001588885
12,2.62760463992755,3,-0.785689120062364,-2.47383342798152,2.62760463992755,0.00764591872139724,0.00461129289179556,0.0089288350431698,-0.0410957119734467,-0.318409926975124,0.323060531610827,0.0208729897685243,0.195796273632377,0.198361838605697,15.3380985105041,2.34273882769948,2.23154226978883,0.015551899288921,0.0725219438886159,0.148613783203187,0.519161011136749,0.00019759829191124,0.00652915447517292,NaN,NaN,NaN,NaN,3,-106.299635778902,2.43592139205114,stable,stable,1,0.740366938368485,0.0854259091075499,0.0537176049185736,0.956283270303846,0.333949429687472
13,1.94898728124138,2.95648002624512,-1.02854647754199,-1.62310790216885,1.94898728124138,-0.0742299894360467,-0.000437178511234641,0.0742312768092149,-0.0629914767496925,-0.145332512115365,0.163934469022793,0.0105760879996751,0.198801961104415,0.201363847266839,15.3626849281773,1.16765226784248,1.08476188825732,0.177553055343849,0.240300232436958,0.169429398248346,0.475500307549577,0.159457416359999,0.0372726997461206,NaN,NaN,NaN,NaN,2.02726066309477,-121.319262228342,2.26761203104572,stable,stable,1,0.560002711117737,0.240294935040863,0.228600632849773,0.893525932530149,0.324698045222957
14,2.58192849299158,3,-0.682059144102259,-2.45608356533442,2.58192849299158,-0.00927386563059875,0.0167604673264574,0.0191550998101197,-0.0355128323515113,-0.326044082091869,0.329704470328242,0.0212814472552293,0.207697595469798,0.209596020632562,15.3845487776868,1.6166955621827,1.48397175073177,0.0624282212213362,0.240404051596003,0.128077448144426,0.487145543615143,0.00192618892871756,0.00896466214504946,NaN,NaN,NaN,NaN,2.96211416560549,-104.652706865072,2.26827481955691,unstable,unstable,0,0.730433468924266,0.097577857375417,0.0626626755372235,0.94442350335929,0.343076689713589
15,1.73055793638943,2.43441987037659,-0.930168488470457,-1.44135791823466,1.73055793638943,-0.0442039499648233,0.00238614194353115,0.0442683054325245,-0.0480134960742073,-0.111113103850922,0.123752413069958,0.00798262806111435,0.126150660147601,0.128029179818572,15.4134139051143,0.932465318424854,1.04857405317055,0.177362035401087,0.240211925623295,0.143589072307764,0.445920729617852,0.159574924220639,0.037391285055425,NaN,NaN,NaN,NaN,1.78867162897179,-121.8764556945,2.08304022785902,stable,stable,1,0.487087952334229,0.166484791143073,0.184409894157595,0.895753672951207,0.336182634529883
16,1.77101894378662,2.48584675788879,-1.00446433894532,-1.44437168738295,1.77101894378662,0.00530773478679084,0.00168607991163918,0.00556910352169385,-0.0545337484659192,-0.109377758270049,0.124532121002897,0.00803680894956069,0.118617625385519,0.119594525238573,15.4527887843633,1.52979272142902,1.60793470682672,0.0316741444172591,0.0519792367738091,0.11275732800686,0.454778391761493,0.0140990116095504,0.00784080147258638,NaN,NaN,NaN,NaN,1.79698325918466,-123.928221238646,1.75797756366729,stable,stable,1,0.496190623390814,0.161857260485299,0.106231784208688,0.95950935514079,0.349885631996951
17,1.83354008157237,2.84656023979187,-1.01026504814352,-1.50275926652174,1.83354008157237,-0.0614147117744852,0.0051569598667363,0.0616308450161948,-0.0593610164684333,-0.124235494540604,0.142245500777193,0.00917567631316651,0.182900793839793,0.185088945518051,15.4552521123633,0.816489641608311,1.03160954746448,0.177336066433321,0.240274182043354,0.17459498191815,0.400406291998727,0.159377891323171,0.0371700741344761,NaN,NaN,NaN,NaN,1.90606506718967,-122.683382350962,1.56567812396913,stable,stable,1,0.525961810856242,0.239228523852356,0.227888123271623,0.896811187440624,0.3224022302586
18,1.84160104089854,2.65434861183167,-1.05229738665369,-1.49650087281833,1.84160104089854,-0.0465127969715498,0.0077044087791014,0.0471465608157382,-0.0601070199790761,-0.118455119509214,0.135477689599483,0.00873928062677734,0.119472333305638,0.121773345565299,15.4257851680587,0.909453588260698,1.06785841805205,0.177514980897355,0.240227700702405,0.176761274680504,0.494983520606367,0.159386891710694,0.0367096274614046,NaN,NaN,NaN,NaN,1.87952489310621,-124.36494621675,2.15827680154358,stable,stable,1,0.515448280019336,0.191511739609506,0.199094617744301,0.89570648664458,0.321439433475331
19,2.61551463683446,3,-0.780779161568227,-2.46271326898779,2.61551463683446,0.0078531735303549,0.00319400440220769,0.00847785342048262,-0.0408171428408684,-0.315869293716782,0.320576307599338,0.020692145643101,0.1967597958831,0.199285360717047,15.4256253952823,1.75212550227217,1.62148559467761,0.023712918941869,0.0549890218629122,0.116836196318791,0.45042525800398,0.00017754222071569,0.00477945168827155,NaN,NaN,NaN,NaN,3,-106.031594526481,2.11483750162705,stable,stable,1,0.737327641965933,0.0880634798393344,0.0546549779893508,0.961636596195889,0.348072801636093
20,1.88433522756408,2.62825989723206,-1.00826110452498,-1.57649552037831,1.88433522756408,-0.0500196880677599,-0.000501866752986345,0.0500222057153996,-0.0555831788142884,-0.132191244588499,0.145839793570298,0.00941176277565161,0.139085780091003,0.141510502517219,15.3615374595584,1.25376765279333,1.22716567846151,0.177489646492174,0.240274552246518,0.174634650135461,0.472027818983366,0.159577652657261,0.0344547360494226,NaN,NaN,NaN,NaN,1.95533603544456,-121.682915799118,2.2650952511478,stable,stable,1,0.530791494520531,0.176553788389785,0.189384669141939,0.891762129151196,0.322384599939795
21,1.94645963819235,2.93239760398865,-1.06949541973439,-1.60589870988013,1.94645963819235,-0.0704936978687183,0.00626785088609132,0.0707717980126011,-0.0642238998651209,-0.137434365705335,0.155219676545353,0.0100114320769009,0.15404266766895,0.156549609245452,15.4487952976133,0.879897250936992,0.96516638380378,0.175123042807867,0.240271804573692,0.164446333290264,0.44874828348795,0.156651177737654,0.0406713319138146,NaN,NaN,NaN,NaN,2.01006102178809,-122.843348050567,1.50416354183471,stable,stable,1,0.55036582536705,0.234810871939811,0.225298844066453,0.897941550037389,0.326912740759883
22,2.62257901231448,3,-0.737106016003367,-2.48122514246347,2.62257901231448,0.00775863504595314,0.00419676760043656,0.00882095664133807,-0.0379893473804061,-0.321452318551141,0.325545436285613,0.0210136623604468,0.201033141771696,0.203437653739356,15.4076976699083,1.69286952538328,1.65052073649121,0.0324288411989475,0.0531720454953516,0.109769361230111,0.480691041972883,0.0245678624960903,0.00554876922698736,NaN,NaN,NaN,NaN,3,-105.373889448931,1.5,stable,stable,1,0.740041934031732,0.0865368976134876,0.064858922830714,0.957516084485798,0.951213617231062
23,1.66756781226113,2.48226237297058,-0.804188423481221,-1.43612567470108,1.66756781226113,-0.0556966375986471,0.00708647045628808,0.0561456454529011,-0.0386471849036848,-0.112599702469338,0.121887397729763,0.00786166645867217,0.164234116463987,0.166113176016893,15.4394183728644,0.844121940702071,0.911378154427663,0.17735457485182,0.240218489658176,0.16913057908664,0.43864856626259,0.159047238195155,0.0362677381704148,NaN,NaN,NaN,NaN,1.75191981509009,-118.497538474994,1.71234227027937,stable,stable,1,0.477907385139679,0.193599644492659,0.20003571654127,0.897529497540928,0.324830853739271
24,2.58628041997517,3,-0.563705239599099,-2.49191489832289,2.58628041997517,-0.0074131035429357,0.0212691909643311,0.0225240446726486,-0.0274040950504407,-0.33682002957475,0.339017319176973,0.0218868150270504,0.202042332698544,0.203963707209164,15.3000916999707,1.72347384670991,1.47013543255599,0.0626677838945849,0.240453519750205,0.124710570730778,0.499602995859192,0.00195760755835923,0.00712079010491668,NaN,NaN,NaN,NaN,3,-102.185830974197,2.41925592919928,unstable,unstable,0,0.730467520101879,0.0972163136955712,0.0617892142410276,0.943573463715618,0.34457307967521
25,1.74779961060505,2.55690598487854,-0.94108284419303,-1.45851957839926,1.74779961060505,-0.0512467697652605,-0.00699958360734522,0.0517225829019571,-0.0485586775177593,-0.112651349211255,0.124821723947699,0.00805012694372811,0.116023342887133,0.11802251199865,15.4603162598144,0.90622657659467,0.719757047901743,0.176573981950933,0.240201561386212,0.123478384021943,0.40015720291586,0.159557266090416,0.0364115679636874,NaN,NaN,NaN,NaN,1.79680657025774,-122.144595008979,1.78184478533289,stable,stable,1,0.489684398561075,0.191531407743562,0.19907375529938,0.89893742340349,0.34512071821247
26,1.85702107628187,2.52413868904114,-1.03610673163556,-1.52557782553371,1.85702107628187,0.00373573427929299,-0.000526780810474545,0.00377269249048593,-0.0582817434097861,-0.122149208643669,0.137966466489872,0.00890340099437894,0.128303110622689,0.129365812817669,15.4445019739524,1.39686717502701,1.60821734909352,0.023463970217744,0.0459615432369035,0.109978365208189,0.413479438554959,0.000182525463593041,0.00610766169797543,NaN,NaN,NaN,NaN,1.89015622586425,-123.159855511628,2.11954598789234,stable,stable,1,0.521078782905365,0.150793123160759,0.0927779642148917,0.964656636487324,0.351120726574138
27,1.69517432021446,2.44017100334167,-0.814573892565815,-1.46525886323368,1.69517432021446,-0.048896255331066,0.00420000541031977,0.0490763062062286,-0.0386742417023116,-0.115094323111247,0.12395046224065,0.00799435868547158,0.138641761264048,0.140519631127807,15.4416793137488,0.883086301880537,0.799262930820679,0.176633918153509,0.240200027015815,0.129194138303492,0.426586033765571,0.159389117882329,0.0360817883958431,NaN,NaN,NaN,NaN,1.77620387229689,-117.832865156267,1.91270134945952,stable,stable,1,0.480150411616084,0.176621576508099,0.189933204178322,0.898464582666308,0.342580382976226
28,1.70324434715063,2.45108366012573,-0.960235084487513,-1.38598837819854,1.70324434715063,-0.0532537367971226,0.00530342141629955,0.0535171632429829,-0.0515676922047391,-0.102873454077451,0.118283566747165,0.00763250491457693,0.143025733413076,0.145028222748689,15.3650212016642,1.06084234636928,1.23843039524869,0.177879863239568,0.240203232662539,0.162696282819075,0.484793989187493,0.159111309635438,0.0366888251978639,NaN,NaN,NaN,NaN,1.77693740749085,-123.63065316624,2.38024646806211,stable,stable,1,0.48320413712324,0.178075325347277,0.190902723805158,0.892994353981789,0.3276905409693
29,2.63153867880503,3,-0.517256353694854,-2.54890699874408,2.63153867880503,0.00613270389095697,0.00339219294866047,0.00700835430148195,-0.0226173042339695,-0.337466224548791,0.339030309258095,0.0218846985667319,0.194496531712783,0.197251958186118,15.4211155912947,1.88965839478312,1.53584212470476,0.0290252651797522,0.0509781957607311,0.125179327213964,0.423736385253311,0.00822820370109385,0.00616152655928449,NaN,NaN,NaN,NaN,3,-100.208461528465,1.88158373273844,stable,stable,1,0.741194039318566,0.0841886622241392,0.056410731869659,0.95857272047129,0.34436474346046
30,1.84887522256293,2.55144715309143,-0.93503729637465,-1.58220048887216,1.84887522256293,-0.0490339924934076,-0.00450504063402488,0.0492405098568016,-0.0478295459414198,-0.13176040981026,0.141940926217024,0.009158232751213,0.108156545497596,0.110464988096051,15.3563643282869,1.129023337126,1.12330151960015,0.177156745441143,0.240229309740058,0.154714521395486,0.47196988859443,0.159216292027826,0.0358766305396055,NaN,NaN,NaN,NaN,1.90894849737311,-119.745808657761,1.86921177489161,stable,stable,1,0.515126390302659,0.167106111175992,0.184072510631355,0.893724789119437,0.331237990490895
31,1.86945473499039,2.86891078948975,-0.936152412066844,-1.58890491256687,1.86945473499039,-0.072952543884822,0.00911781230086162,0.0735201207862217,-0.052740286042199,-0.137946235727651,0.152010786630955,0.00980492752630732,0.184600795797662,0.187000645041279,15.4444873019924,0.918880258434922,0.945437084144638,0.176690049651817,0.24028703277339,0.168594085627525,0.440607762389108,0.159199884405576,0.0377822703357593,NaN,NaN,NaN,NaN,1.95935225919259,-119.13516242978,2.19840650043399,stable,stable,1,0.535921391672359,0.238356301073163,0.227508292218976,0.897006767482395,0.325069295276656
32,2.63195027947426,3,-0.646192651539198,-2.51832876193721,2.63195027947426,0.00745467670196451,0.00249774167061003,0.00786199199846414,-0.0308533888432862,-0.329378047927269,0.332109634537594,0.021444601722003,0.19422871785232,0.196836738340365,15.4154471483708,2.12039686091642,1.75974114709787,0.0151186904903242,0.048333533222899,0.13461107315765,0.464659373539843,5.69725698287871e-05,0.00490964007335735,NaN,NaN,NaN,NaN,3,-103.01941117063,2.44799555928283,stable,stable,1,0.741220755527875,0.0842525523180102,0.0523621761959913,0.96195385612044,0.340172856374378
33,1.86468168059174,2.83619737625122,-0.820284974935333,-1.6471753946188,1.86468168059174,-0.070040835285756,-0.0043104679602198,0.0701733478007319,-0.0418680038891963,-0.148070586794869,0.156881259083434,0.0101181442979318,0.184321032935418,0.186722302632544,15.4668255232293,0.890264718629211,0.754022452273782,0.176000224601859,0.240269522130619,0.147032128059483,0.396150055891002,0.159469779401088,0.0358809829252228,NaN,NaN,NaN,NaN,1.93692079365451,-115.089103932968,1.93611731210011,stable,stable,1,0.534592908684306,0.231456145286851,0.222796774838332,0.899080488499118,0.334652387529119
34,2.67647252944579,3,-0.570745673424319,-2.58037769116231,2.67647252944579,-0.0235609175461806,-0.010586945785698,0.0258302198342799,-0.025932599089706,-0.340701215917162,0.342727114320603,0.0221101889313016,0.203750893788266,0.205842536848004,15.4566913899727,1.32063017392116,0.943358911750922,0.0625550456731642,0.240296238587603,0.0933889077215446,0.452004737179505,0.001898566767714,0.00715613924688241,NaN,NaN,NaN,NaN,3,-101.157933097739,1.99047262742648,unstable,unstable,0,0.75489451522181,0.0775292211776494,0.0499635726123188,0.95093399149028,0.358493818790425
35,1.7719856958811,2.7568142414093,-0.787075179119449,-1.55979840306688,1.7719856958811,-0.0643186532872608,0.000168012489631885,0.0643188727270895,-0.038498914044092,-0.132958768384251,0.141461936355382,0.0091230824187145,0.182666744990701,0.184898116631709,15.465704717787,0.842206536208691,0.735093960035844,0.17662823018801,0.240247161066026,0.136900731971374,0.41828759484773,0.15912935594026,0.0347462243953332,NaN,NaN,NaN,NaN,1.86137587595629,-115.841095627455,1.68532883279601,stable,stable,1,0.509509142227968,0.233378216077146,0.223386078531171,0.899292809578359,0.339155230234945
36,1.95911973317464,3,-0.892314220112141,-1.71582103891469,1.95911973317464,0.00650818672379237,0.00434882229475688,0.00782743570929342,-0.0486629782895955,-0.15989033527434,0.17067986261542,0.0110281655198264,0.208495721708894,0.209754719385674,15.3118772052824,2.23168480597103,2.10078796734179,0.0338214802573881,0.0740153050888423,0.135238222032286,0.49525182441775,0.0253621613752663,0.00560254201384368,NaN,NaN,NaN,NaN,2.00134863438598,-116.022448666907,1.5,stable,stable,1,0.564382872723706,0.235633089915743,0.15468921367682,0.949048402366705,0.339894123541206
37,1.8069531184596,2.57383441925049,-0.803071152534836,-1.60487774025534,1.8069531184596,-0.0426142374277546,0.00175264041174503,0.0426502635391849,-0.0359371358874813,-0.136120679611627,0.14219664413814,0.00916952575586884,0.120432748737445,0.122640070879328,15.4777103112839,0.732914674993359,0.577773721686625,0.176127291971607,0.24025439443953,0.0860263038278544,0.368417888946098,0.156899184936913,0.0408953904286367,NaN,NaN,NaN,NaN,1.84847057739295,-116.145839673518,2.35007357921396,stable,stable,1,0.506382179098425,0.180367507660134,0.192824526744112,0.901638088040282,0.36176608718762
38,1.96562348990827,2.81065344810486,-0.770400714241822,-1.78581004844818,1.96562348990827,-0.064291175579578,-0.00286033900103758,0.0643547729123876,-0.0355104989569276,-0.170090088590238,0.175684243954237,0.0113298480284898,0.157725092351425,0.160337957090901,15.4634164130134,0.861081884457058,0.716107467350703,0.176643744249318,0.240298939177053,0.146810150954279,0.422367447782203,0.156779059736738,0.0430598742529216,NaN,NaN,NaN,NaN,1.9993932608471,-112.620106358339,2.20589722353153,stable,stable,1,0.556233855393719,0.20193011562817,0.206495787574091,0.899285925825423,0.334751044020321
39,2.60925934990247,3,-0.618295384949374,-2.50235078939365,2.60925934990247,0.00539397636072123,0.00399454443650572,0.00671203145368362,-0.0289105727314485,-0.326445427961133,0.328875704662477,0.0212326997179011,0.201279082519529,0.203862134298657,15.4121022274955,1.88230338518058,1.79050051376428,0.0145020288466967,0.0457575459522584,0.130032555102023,0.451186822023817,0.00010992546808708,0.00544033673822713,NaN,NaN,NaN,NaN,2.9987372183553,-102.731971335258,2.48200906761241,stable,stable,1,0.736574920167057,0.0891471853717861,0.0555154712551121,0.963891240656371,0.34220775328799
40,1.89573828460408,2.67225480079651,-0.286399060847663,-1.86190898866855,1.89573828460408,-0.0364811935696684,-0.0136131274371184,0.0389383451482833,-0.00689775406893603,-0.18239804969939,0.182678353808435,0.0117816104332449,0.122538349975776,0.125464497813664,15.4620972174215,0.92412453028517,0.631477264315497,0.176440717824381,0.240253748434139,0.129008888743374,0.376966312647702,0.159896796566687,0.0329650158842762,NaN,NaN,NaN,NaN,1.96262077332345,-97.9255988407311,1.58660729764167,stable,stable,1,0.530623108790487,0.181854912753815,0.19216546907419,0.899557055558804,0.342662716114056
41,1.90450623246277,2.58650350570679,-0.255472970334737,-1.87435539489292,1.90450623246277,-0.0418421065959864,-0.0145755165595554,0.0443080982142967,-0.00604266289651643,-0.184365173153462,0.184572064642093,0.0119065051818948,0.114105968068784,0.117022602038035,15.3771516114961,1.08529313824521,0.833979700487974,0.176461586871657,0.240231063143027,0.127767414334668,0.459875358597094,0.159607861938754,0.0365881513308631,NaN,NaN,NaN,NaN,1.94919332297993,-97.076725643542,2.27217391604663,stable,stable,1,0.531272849064346,0.161572537819191,0.181185132521982,0.896689205688411,0.343214482517925
42,2.62924516916275,3,-0.636135889707934,-2.51630619891596,2.62924516916275,0.00815578230456207,0.00295510463028291,0.00867464283848778,-0.0307675751866169,-0.32920105869129,0.332027044629266,0.021430103712788,0.19804354015989,0.20065068294897,15.430288894884,1.77498151990932,1.50752574845619,0.0243363697069135,0.0482255969080072,0.10622412347182,0.398242725657304,0.000603879885412859,0.00497151644565644,NaN,NaN,NaN,NaN,2.97766096785849,-102.83550377438,2.07600138020359,stable,stable,1,0.741262181699861,0.0850101881254373,0.0530823280975028,0.962040686609386,0.352789278456969
43,1.83688141284762,2.61573576927185,-0.251983405688684,-1.80182711890103,1.83688141284762,-0.0586415627410043,-0.0026588440087915,0.0587018085936901,-0.00677126242928164,-0.173178508095581,0.173486696868365,0.0111897571542748,0.153035032310367,0.155872610527982,15.4473256914646,0.995190892432766,0.634644811422717,0.176250485756421,0.240255217701382,0.138720849385584,0.352320600468761,0.156381855451557,0.0404249310639265,NaN,NaN,NaN,NaN,1.87761184680711,-96.9149867627548,2.08022944405945,stable,stable,1,0.521009565531629,0.186004228437628,0.195805558862272,0.899068905162925,0.338346289161963
44,2.45477467180681,3,-0.588261156643034,-2.35246036299128,2.45477467180681,-0.0129275247081149,0.0200228606806207,0.0238335025733622,-0.027895913128295,-0.304364562334028,0.306892185585433,0.0198042720502017,0.21635136561769,0.218091475898582,15.4153069042274,1.49994011126326,1.23391429791768,0.0626077271474349,0.2404739661721,0.104502530932712,0.415725510293711,0.00195214097442788,0.00874149305934336,NaN,NaN,NaN,NaN,2.70268226585959,-102.84402520654,2.37457599750461,unstable,unstable,0,0.6982248743282,0.12704517431525,0.080273447548859,0.947215851782718,0.353554430696573
45,1.70454622369234,2.52502226829529,-0.233589999108347,-1.67013956872404,1.70454622369234,-0.054335002902339,-0.0189465416830161,0.0575435833272786,-0.00606090548890308,-0.14857476686814,0.148863031358589,0.00960516624740964,0.1447651693275,0.147153527973191,15.3590780846184,1.20958917192939,0.951598024192988,0.17772159163528,0.240231335068147,0.139654569739183,0.442690191664063,0.159695514906929,0.0367847321412285,NaN,NaN,NaN,NaN,1.74484723470437,-96.8322370152764,1.93573994949172,stable,stable,1,0.48397636524593,0.195156766978997,0.201446110823652,0.894158447641399,0.337931302338141
46,1.68609220766304,2.42267489433289,-0.238000629501101,-1.65312199982736,1.68609220766304,0.0050578161375407,0.00167814538107873,0.00532894698802709,-0.00595514115398631,-0.144411389683605,0.144689916070873,0.00934597851308715,0.136964459288962,0.13818751600419,15.3525417576798,2.09823611352026,2.12122395861511,0.0257700820852192,0.077862773748351,0.131642219538914,0.478668771459987,0.0135537205457697,0.00907044766862105,NaN,NaN,NaN,NaN,1.71876069037497,-96.5690723186371,1.60033661810299,stable,stable,1,0.477262091910981,0.166708078115188,0.109347067274004,0.953962058390613,0.341492346871594
47,1.75676546547864,2.50843167304993,-0.144171393826931,-1.73087214593441,1.75676546547864,-0.0553635455538496,-0.0320414719149189,0.0639670078928796,-0.00389653782233624,-0.159992970403128,0.16015976269227,0.010329147952578,0.149107312256264,0.151875261706146,15.4578346185823,0.893573696086449,0.604555976352258,0.175612836186008,0.240219482216273,0.131804983833175,0.341864982330315,0.156811595040285,0.0410591463562375,NaN,NaN,NaN,NaN,1.8330973949862,-93.5355183886098,1.72518044896062,stable,stable,1,0.498845843135533,0.180852181483901,0.193135949805463,0.90042256305212,0.341420007185256
48,1.70105644553697,2.34864354133606,-0.181988647165515,-1.68042806714575,1.70105644553697,-0.0325920431453528,-0.0198749582502464,0.0381740126504613,-0.003605648437287,-0.148504620104264,0.148608248544357,0.00958366726621801,0.103883213935846,0.106340873441037,15.479387303692,0.800060949227291,0.57195114147961,0.177337280253234,0.240198869389603,0.133024918921844,0.384624115082652,0.159760049486431,0.0360395810886819,NaN,NaN,NaN,NaN,1.76093856199151,-95.8152911333806,2.49705658470444,stable,stable,1,0.4748832268314,0.152705665540713,0.175733167976908,0.900551264874972,0.340877813812514
49,2.61611539085706,3,-0.672688884204338,-2.49353597672085,2.61611539085706,0.00632128352737567,0.00464472336242327,0.00784423868497839,-0.033088688908212,-0.323916171282735,0.327141210940176,0.0211203656130361,0.200006089195488,0.202594112686094,15.3790064982093,1.80088240571878,1.78084021162646,0.0243203255851535,0.0689422412358911,0.119890916684242,0.467315185725323,0.000261866732353709,0.00675384124297642,NaN,NaN,NaN,NaN,3,-103.690253195533,2.08569564163787,stable,stable,1,0.738149593432435,0.0878121474827407,0.0552596159741971,0.959697730928282,0.346715148140337
50,1.64250535739435,2.33369946479797,-0.161951655729461,-1.61712173535311,1.64250535739435,-0.0437660095345839,-0.0213750545236355,0.0487068429121585,-0.00369464219802348,-0.139355841803933,0.139504908839414,0.00899653221292187,0.136249031775005,0.138551071364711,15.4680092023883,0.762557430208078,0.572180342678539,0.176266490720289,0.24021820085876,0.113906373866584,0.373157321107283,0.156842772261859,0.0388392414224181,NaN,NaN,NaN,NaN,1.72627812567413,-94.411640590645,2.37724742255231,stable,stable,1,0.465711642911435,0.164448262033045,0.182500216520118,0.90137952928146,0.349374944948185
51,1.60232757143423,2.28982043266296,-0.130714622398293,-1.58496413881496,1.60232757143423,-0.0393911043665729,-0.0135048193631984,0.0416417969022815,-0.00245212917856481,-0.132012355669678,0.132091154482175,0.00852194201484955,0.107787479524154,0.110069444795193,15.3568776471994,1.08655030233242,0.847215405358767,0.177414569951865,0.240177357310914,0.121353962452081,0.44607498696959,0.159332441676747,0.0338201414657743,NaN,NaN,NaN,NaN,1.64198518080473,-93.7945426045898,1.89936457966342,stable,stable,1,0.4493012413415,0.16232022320855,0.180504785708411,0.896098841606494,0.346064905576853
52,2.63890907009443,3,-0.654915833081072,-2.52172695642622,2.63890907009443,0.00854641845551462,0.00586416569228898,0.0103648303258365,-0.031728926637124,-0.330199125683151,0.333053708340926,0.0215076061071251,0.196914995447933,0.199572768980892,15.3392733741106,2.03891300481738,1.86031742908381,0.0249998332415072,0.0737374642884361,0.121438949939589,0.454875296434425,0.000274413964675968,0.00656002030723953,NaN,NaN,NaN,NaN,3,-102.899260755177,2.04940001020977,stable,stable,1,0.743623639154692,0.083145678121824,0.0523948305650779,0.956863272827166,0.346027133360183
53,1.71354617026387,2.51727938652039,-0.144577151168046,-1.68389958415544,1.71354617026387,-0.0564025235373465,-0.0151236047806187,0.0583949319970601,-0.00406586914239567,-0.15409302007167,0.15430387956455,0.00995295630003327,0.165118861802525,0.167659529978322,15.4534512051602,1.01720261171753,0.716158229344089,0.176321412169952,0.240223581687953,0.148900871950808,0.402334564335297,0.155999365339927,0.0403026500027006,NaN,NaN,NaN,NaN,1.76767167051157,-93.7767495596924,1.5,stable,stable,1,0.490477551399364,0.191545711190509,0.198915987068386,0.898220030163826,0.33382183468853
54,2.61498612613185,3,-0.54165805638514,-2.52644484082646,2.61498612613185,-0.0167755688767526,0.00951826466215165,0.0192877441220438,-0.0247741625834,-0.338591442356058,0.34042736739694,0.0219821993118164,0.199138039818494,0.201179294621517,15.3937915374336,1.93106108835423,1.59630380138942,0.0628338624197462,0.240460568772666,0.136252812590703,0.423341139380791,0.00192803041858933,0.00889737370826186,NaN,NaN,NaN,NaN,3,-101.106544404973,2.25717484313126,unstable,unstable,0,0.737565492559465,0.0901642080427074,0.0581908358550725,0.940868058942141,0.339443194404132
55,1.62673876236896,2.60206747055054,-0.158036506059764,-1.59573231276736,1.62673876236896,-0.0611274210925635,-0.0396405090815756,0.0728555527717281,-0.00443981637317555,-0.139005258293635,0.13923554428303,0.0089808113641097,0.170126687943708,0.172369350197633,15.4451087168692,0.973279298382639,0.657242244911221,0.177044322011139,0.24019148621205,0.140388690469104,0.368950347983728,0.160415600478599,0.0364453084398432,NaN,NaN,NaN,NaN,1.6954412846166,-94.4207914550518,2.29077297557902,stable,stable,1,0.468270873337916,0.232805810682338,0.224232148277006,0.898666598297122,0.337605026458176
56,1.69957999587059,2.43607425689697,-0.0858495556042788,-1.68637159763518,1.69957999587059,0.00184424005399108,0.00246181324601707,0.00307599509671426,-0.00159548694703581,-0.149335536072277,0.149377082783794,0.00963862627930837,0.123388867416547,0.124641759171504,15.4418252523067,1.41516197260664,1.32776766262694,0.0316812854780011,0.0489982342100717,0.101536543972812,0.366931490099464,0.0116688972705488,0.00456442724513352,NaN,NaN,NaN,NaN,1.73280982852964,-92.1431804697514,1.77214590664598,stable,stable,1,0.478149684066458,0.166275141165334,0.106611052989392,0.962607767269878,0.354872647123195
57,1.60955183157305,2.45568919181824,-0.201799148228254,-1.57449354653904,1.60955183157305,-0.0556987459625811,-0.0143044695471002,0.0575062444507383,-0.00576737760409811,-0.135220098832804,0.135567961627882,0.00874388217615248,0.167715644422091,0.169917453050819,15.451156664402,0.919759519740883,0.687924901654441,0.17571634891669,0.240199886886765,0.127264650630909,0.35500686340083,0.159449683894009,0.0345233012854814,NaN,NaN,NaN,NaN,1.65239533729994,-95.8334835366937,1.69601629514639,stable,stable,1,0.463197312362976,0.200923717537804,0.203974684437972,0.899510019373549,0.343437933052929
58,1.6434357433903,2.2763524055481,-0.103434190913508,-1.63020271585093,1.6434357433903,-0.0332554542470099,-0.00865830094401776,0.0343641006344142,-0.0017623155073767,-0.140075263829118,0.140117178284469,0.00903673940655946,0.115793103678748,0.118189924769065,15.4610882985637,0.857734355696882,0.607825963686109,0.177357110755252,0.240177881655845,0.127493448645532,0.402860572598805,0.158672957033031,0.0361454952311818,NaN,NaN,NaN,NaN,1.68060545220575,-92.4282145747537,1.54169621369404,stable,stable,1,0.461887516524559,0.148706334101814,0.172888931145693,0.899806327827222,0.34333624504643
59,2.53413080811501,3,-0.523148977915393,-2.44682269700541,2.53413080811501,0.00842137777268162,0.00324343252007992,0.0090243813141139,-0.0234805805067217,-0.3136419730109,0.315411807965681,0.0203585857573036,0.208838666180445,0.21134939878507,15.4240091281886,1.79441196293344,1.46502892779982,0.0221333134429691,0.0475955969421891,0.112509483225284,0.419589941615886,0.00016946739653157,0.00574053498739067,NaN,NaN,NaN,NaN,2.78982386220964,-100.41262924442,2.14998152621014,stable,stable,1,0.718038095254349,0.106475038081711,0.0660478089600718,0.963323450565611,0.349995785233207
60,1.65906707932349,2.67173385620117,-0.0976127381012111,-1.63365671082749,1.65906707932349,-0.0596800944322083,-0.0163558113267638,0.0618807420413976,-0.00256533913926806,-0.146565264998072,0.146719039233123,0.00946604155512344,0.176602978737632,0.179078351897715,15.3452107890454,1.14166881422475,0.934905022685568,0.177612592537138,0.240222001255799,0.140792736116664,0.476683595467579,0.159622668972443,0.0382778529460435,NaN,NaN,NaN,NaN,1.72864210057146,-91.9462754292346,2.06395245409976,stable,stable,1,0.47823355819914,0.239194827505068,0.228379524188345,0.894877766441421,0.337425450614816
61,1.59734728547181,2.24795126914978,-0.183930425728393,-1.5728978404008,1.59734728547181,-0.0435922350043911,-0.00591785182702733,0.0439920893221123,-0.00395969629772619,-0.131018610033495,0.131164259305901,0.00846214258700478,0.12795157785729,0.130050619432074,15.3767090281716,1.09406842776524,0.919755769241446,0.176925314549094,0.240204117009336,0.135476341970304,0.465116164369451,0.159590525604309,0.0369842013631385,NaN,NaN,NaN,NaN,1.6541677253945,-95.777639022521,1.65994028058217,stable,stable,1,0.45196940001223,0.154451112703265,0.177048590608449,0.895714438320401,0.339788292457643
62,2.61048084338506,3,-0.542945354461649,-2.52064509074558,2.61048084338506,0.00828269991784816,0.00346376438934409,0.00897779380883801,-0.0244238160122075,-0.330960360092536,0.332780465739351,0.0214763918556902,0.198743062638732,0.201357516886693,15.4197092367736,1.54141911973132,1.4746975259122,0.0293456863860942,0.0498675011864487,0.104467692703304,0.431288227703531,0.00917802515764772,0.00539725396692859,NaN,NaN,NaN,NaN,2.96888331606625,-100.576107342626,1.85627710148442,stable,stable,1,0.736399728280021,0.089287739103315,0.0596144035604327,0.961629097448325,0.353569914354087
63,1.53462703373967,2.18538594245911,-0.0893426233231362,-1.51649807101517,1.53462703373967,-0.0423799961150735,-0.0206679126565867,0.0471511048045954,-0.00183864218045506,-0.122956278937809,0.123036718798668,0.00793436489362408,0.128026934393672,0.130016087586844,15.4714441748015,0.782962667737828,0.488903151205843,0.176780512978175,0.240199771384781,0.12063095526823,0.364836350457562,0.159433042982961,0.0389557612717616,NaN,NaN,NaN,NaN,1.60300708299886,-92.1234906695166,1.55595864282856,stable,stable,1,0.435237093181282,0.155065123676048,0.178063935791828,0.901616512076355,0.346386242103009
64,2.67245045070555,3,-0.636114534975389,-2.55623981047792,2.67245045070555,-0.031045749093899,-0.00694600694058492,0.0318132920211031,-0.0275471609063535,-0.336542215513647,0.338858071767038,0.0218703898422294,0.207037800695424,0.209152041527671,15.4518262586602,1.70785555265524,1.32891001282991,0.0629351947450091,0.240356196783702,0.116240397339243,0.395494929643904,0.00185289048492909,0.0070409433030917,NaN,NaN,NaN,NaN,3,-102.201792877698,1.78004696134249,unstable,unstable,0,0.754483861827013,0.0795310854617875,0.0511025011785693,0.944672101755826,0.348337601182559
65,1.48513112668277,2.12830519676208,-0.131035109268603,-1.46511468800893,1.48513112668277,-0.0412517989465658,-0.0254539025166382,0.0484727972130184,-0.00280650391207147,-0.114283396552696,0.114389409688521,0.00737854975617374,0.122039638995264,0.123860726449905,15.3657239858644,0.952571031577072,0.810405382855859,0.177261007893361,0.240153626859062,0.128634439806597,0.506702789419702,0.159515312208534,0.0358529189260322,NaN,NaN,NaN,NaN,1.55228808798252,-94.2268777224065,1.68019022114588,stable,stable,1,0.420807112405388,0.153600845256898,0.176093626533055,0.897517538511347,0.342829137863735
66,1.57557298044364,2.35193562507629,-0.116789451718704,-1.56108816862334,1.57557298044364,0.00268103090282326,0.00221959071700643,0.00348059041728763,-0.00201425739139503,-0.127470741115104,0.127523322415505,0.00823286789864783,0.102569304154349,0.103600149152799,15.4221376226103,1.96956326732146,1.62976476901881,0.0220046309030644,0.0501432910819832,0.124123991248778,0.374963678981202,0.000336792186382067,0.00666152881186066,NaN,NaN,NaN,NaN,1.60696450398557,-93.5145725727472,2.16518516235218,stable,stable,1,0.44087282461553,0.175319703285517,0.107763881500884,0.960717249977223,0.34483378166721
67,1.67497605004826,2.30941963195801,-0.102449159158214,-1.66054138924986,1.67497605004826,-0.0397842447357275,-0.0228508345168808,0.045879698858102,-0.00189206667087204,-0.144898514332755,0.14494795050277,0.00934826998045251,0.109865654547511,0.112329025675433,15.470560985747,0.909852623602123,0.567379237235082,0.175815349570206,0.240211928265212,0.124434494474911,0.382072156489932,0.156550156798071,0.040067252369335,NaN,NaN,NaN,NaN,1.70472744872138,-93.0615211949791,1.79625970639803,stable,stable,1,0.469126085147956,0.151161084053678,0.174844407850502,0.900485503451176,0.344695780233373
68,1.61796020974918,2.23976182937622,-0.144635235782097,-1.60087048557039,1.61796020974918,-0.0385074561835713,-0.00463527075401398,0.0387854343367801,-0.00262668486096761,-0.134562354746697,0.134631343463655,0.00868578236139144,0.0985890385376996,0.100926965632403,15.3806923102391,1.06770189998143,0.848703966522371,0.177510720502758,0.240190196754461,0.146717346470632,0.435363116656056,0.159361311328354,0.0354014588650987,NaN,NaN,NaN,NaN,1.6346567991892,-94.1375227104005,1.99695538764389,stable,stable,1,0.451641449059596,0.147016027377827,0.171910123675091,0.896187165083234,0.334792290457497
69,2.62303424715996,3,-0.382305927640184,-2.56031052929596,2.62303424715996,0.00568452849551201,0.00257676852363964,0.00624128193888948,-0.016244804672004,-0.340808521400708,0.341718645879095,0.0220555916287217,0.197420882828255,0.200105052781792,15.4252100486818,1.81582880997768,1.40352430507194,0.0259901125428365,0.0512563053204807,0.101431408840301,0.443942077749829,0.00106285272709572,0.00590154307944784,NaN,NaN,NaN,NaN,2.97762147861884,-97.4745863886534,2.02021531500406,stable,stable,1,0.739496809799014,0.0859615294111392,0.0541953123017576,0.961710026396049,0.354919373848755
70,1.67757388766931,2.29992842674255,-0.0791609780729555,-1.66362904578828,1.67757388766931,-0.0420134649117372,-0.0103736505384413,0.0432752106798277,-0.00144915435649084,-0.145957280471659,0.146002621098902,0.00941656030779578,0.122810400971633,0.125218141270335,15.4647675276166,0.925273762260858,0.657866822298032,0.176281607602272,0.240177772388963,0.149742478572559,0.372855173209991,0.159535697400243,0.0373237413394489,NaN,NaN,NaN,NaN,1.74106956136438,-91.9626622500687,2.05598448117686,stable,stable,1,0.472396664965883,0.147963559916115,0.173255159927758,0.899420234463044,0.333447787301085
71,1.62597558449726,2.14376950263977,-0.201345320066593,-1.6038554168856,1.62597558449726,-0.0374064659063049,-0.0195696739141063,0.0422162981406945,-0.0038399687070074,-0.135335286423764,0.135453567804476,0.00873633043082203,0.114024390234562,0.11642538388338,15.4356109197345,0.899792626712999,0.624447086474844,0.177123006757901,0.240194259528405,0.127707182838167,0.420210818714636,0.15949808156417,0.0374890048052716,NaN,NaN,NaN,NaN,1.67774962146967,-95.9395937551425,1.56512493793758,stable,stable,1,0.456878565975945,0.124243286241193,0.159066373379193,0.899462327446002,0.343241252071926
72,2.63066584330339,3,-0.602712828378561,-2.53031593871315,2.63066584330339,0.00723280594112568,0.00561738187416427,0.00915797253228968,-0.0272755078269041,-0.332787037698057,0.334889921906863,0.0216275951434395,0.19086951512455,0.193477169493667,15.3711359308571,2.09994785550675,1.86857227938877,0.0200949257777636,0.0700159271748453,0.14514787677642,0.469219994080383,0.00806957110314197,0.00941757105140269,NaN,NaN,NaN,NaN,3,-102.28205700878,2.20488079700592,stable,stable,1,0.740206325446303,0.0847791468876577,0.0578785354698546,0.958771307479796,0.335489832543813
73,1.68867460318974,2.43445420265198,-0.158947662892238,-1.66561485170313,1.68867460318974,-0.0435164730821017,-0.0274309390901141,0.0514406439391152,-0.00348196425944707,-0.147960226506795,0.148083653775517,0.00955450469014214,0.12790111185878,0.130348731051249,15.3788495504924,1.19792565974002,0.893754885331105,0.176628943184051,0.240203352569463,0.152705576255655,0.465146302812739,0.15660949452679,0.0409426735738094,NaN,NaN,NaN,NaN,1.730743683828,-94.7490683234343,2.45757689259459,stable,stable,1,0.476382973727514,0.177231194601174,0.19083118148632,0.895250895553844,0.332130854997487
74,2.67459611059671,3,-0.596700446810283,-2.57297868444984,2.67459611059671,-0.0265993441671594,-0.0104296446296627,0.0285710097340652,-0.0263384696413591,-0.339155161433024,0.341262184948829,0.0220188345824553,0.197059519890808,0.199079861774198,15.4497605369026,1.4343114041029,1.13110546007191,0.063481759577137,0.240446609407131,0.103746109318203,0.385774640403447,0.00185689057492158,0.0082685798229497,NaN,NaN,NaN,NaN,3,-101.440236798872,1.98661480671242,unstable,unstable,0,0.753041601847297,0.0784538935669846,0.0509043771394103,0.948102273421487,0.353890618080799
75,1.68403087100204,2.40950846672058,-0.176415205173635,-1.66472869706409,1.68403087100204,-0.0261342333560067,-0.00853461783474387,0.0274925054276859,-0.00323455455134797,-0.145931411208276,0.146027964512144,0.00942072951480783,0.116227698631584,0.118560335372592,15.3762442841647,1.1153231751501,0.851431386813689,0.177597159541166,0.240207956147486,0.157140301667904,0.474795911949642,0.159515396808575,0.037162214914811,NaN,NaN,NaN,NaN,1.72844746755899,-95.0560971705178,1.59256587412299,stable,stable,1,0.472786966008396,0.168272751698414,0.185372915630265,0.89574834867113,0.330159865925376
76,1.77233585556348,2.45548009872437,-0.225807076434959,-1.74570269787525,1.77233585556348,0.00225493475804464,0.00303035971513129,0.00377727557455482,-0.00483720812807245,-0.159032018466415,0.159191398381589,0.0102756531226537,0.119598261356967,0.120949302121414,15.4393401568784,1.75452769175136,1.72415728967886,0.0217203796752732,0.0497556909066413,0.118623842005502,0.427121765800669,0.000155322653851275,0.00507238134174143,NaN,NaN,NaN,NaN,1.80133462105751,-96.2777836497926,2.18477539334208,stable,stable,1,0.496812755241211,0.154399955233201,0.0945535077366087,0.961807285308269,0.347278292441999
77,1.71059690527365,2.40596723556519,-0.143686222504121,-1.68903512498683,1.71059690527365,-0.0475026931920932,-0.0140414005214806,0.0495345009978578,-0.00319992942412785,-0.150858055596694,0.150968030678841,0.0097380750786471,0.13316618209458,0.135778815065132,15.4024355249548,1.01688239128878,0.730853479208223,0.177135980201643,0.240217906570511,0.143828307273424,0.425553026405205,0.159472806585176,0.0366581625600493,NaN,NaN,NaN,NaN,1.75923009576763,-93.8331549635916,1.54467094760599,stable,stable,1,0.483314937752665,0.165539649498537,0.183530833556794,0.897699799488131,0.336076307878478
78,1.78037263179312,2.59065270423889,-0.205115314779353,-1.75653883951022,1.78037263179312,-0.0395276952137896,-0.0069008211606236,0.0401255532249108,-0.00437770019995714,-0.162677857789509,0.16282333235993,0.0105010344096573,0.123356128603249,0.126201985779164,15.4645238016804,0.914426455266173,0.561186313489807,0.176217124972316,0.240255114237987,0.131176462184289,0.381837659934879,0.159498411711219,0.0339547849059257,NaN,NaN,NaN,NaN,1.84421771642335,-95.6415120879709,1.96511605720509,stable,stable,1,0.500006432300665,0.189669367724866,0.197036998128929,0.900297337187902,0.341699350140316
79,2.62393896420797,3,-0.405762483154182,-2.56362397312036,2.62393896420797,0.00581207837825863,0.00508852091804083,0.00772484952658371,-0.0164201048408948,-0.341563620337014,0.342423546657207,0.0221159575821336,0.187232986392834,0.189956713626084,15.3449243299859,2.01248289418925,1.97426801357799,0.0302321875233013,0.0699646232518323,0.120427588715411,0.45322881996326,0.00822392960067533,0.00455982082930236,NaN,NaN,NaN,NaN,3,-97.5958361626102,1.8646465613494,stable,stable,1,0.737708399847341,0.0860299554664144,0.0569311697675719,0.953559434820178,0.346476627237595
80,1.76485747504396,2.75120806694031,-0.231797838666957,-1.72665640799599,1.76485747504396,-0.0637288946716924,-0.0356320149732321,0.0730137829942285,-0.00704315541897278,-0.162443090302877,0.162825476055633,0.0105009691427898,0.179994805379388,0.18272557836906,15.4653298369095,0.895279984207535,0.560360358684469,0.176644099776392,0.240264849268561,0.120129733714994,0.369975288792749,0.15945736292353,0.0374968877985812,NaN,NaN,NaN,NaN,1.84269174465958,-96.4089816842801,1.5,stable,stable,1,0.507173775685536,0.235314743392286,0.225694017039253,0.900240775989081,0.346609007237781
81,1.82573164482506,2.71216702461243,-0.223434914565723,-1.78756098705701,1.82573164482506,-0.0689702744594844,-0.0329165593242301,0.0764225008538858,-0.00708661377278984,-0.174749255698245,0.175139382361325,0.0112988562404473,0.195406866432982,0.19825527092298,15.3563786229527,1.18341384374196,0.895689413293276,0.176927626523001,0.240277196669985,0.132479324142422,0.487506060331042,0.15936941438342,0.0356384685094428,NaN,NaN,NaN,NaN,1.90149022471625,-95.3637271300002,1.809951433623,stable,stable,1,0.526512826137945,0.21345875227537,0.21186554529664,0.895200375433223,0.341120300381146
82,2.58692673365275,3,-0.393180922952734,-2.52473499801849,2.58692673365275,0.00462999262873155,0.00612863016630981,0.0076809465209381,-0.0163470543098336,-0.332462764909887,0.333395547688664,0.0215277712856369,0.197759748819663,0.200443774150178,15.4118104207969,1.99203234531557,1.93923680352058,0.016560363400738,0.0512961551401055,0.127117768066706,0.424089815948115,0.000132600278964944,0.00749888162275662,NaN,NaN,NaN,NaN,2.91783086718893,-97.7855854258006,2.39106687041723,stable,stable,1,0.729935883804103,0.0943496584569698,0.0593955945761384,0.960831274987347,0.343503214192575
83,1.71191289960122,2.2770299911499,-0.301225491517842,-1.67297473780219,1.71191289960122,-0.0427704439624412,-0.0186055108537371,0.0466419972864891,-0.0070512950210412,-0.146678047353817,0.147010577952636,0.00948003106046431,0.106885158978929,0.109293251127944,15.4779808684883,0.778363888415633,0.504960573278818,0.176467206439364,0.240186428507764,0.100360808188352,0.355436397176666,0.159534595710142,0.0362993734386045,NaN,NaN,NaN,NaN,1.75027764965131,-99.5200046041142,1.68996642196561,stable,stable,1,0.478368756785913,0.135702378434311,0.165525463980142,0.901683133152719,0.355395196360733
84,2.65623792454048,3,-0.456014609255485,-2.57596808439982,2.65623792454048,-0.0314485113811661,-0.00935786285612187,0.0328112551622963,-0.0179053616881847,-0.340459838870824,0.341583003331194,0.0220538938481335,0.207499475846202,0.209641008116219,15.3581492918908,1.79686195373514,1.49733474574927,0.0634142977388478,0.240334961101005,0.123810062142672,0.463519053563596,0.00185293657229035,0.00951725260784556,NaN,NaN,NaN,NaN,2.95681470906161,-98.270421652992,1.57975176452408,unstable,unstable,0,0.75025831483404,0.0833618637581453,0.0543014647504752,0.942409877063199,0.344973305714368
85,2.04068778802271,2.80941295623779,-0.441224451562456,-1.97939817709818,2.04068778802271,-0.0421858386114185,-0.00317800109302314,0.0423053740120083,-0.0131199557073987,-0.206650231338252,0.20740020015183,0.0133851838674182,0.136530743526649,0.139928553335809,15.3544315795338,1.37648767805965,1.10355655674897,0.178237437584744,0.243736498040414,0.16106030322892,0.485749657243222,0.15950435428369,0.0341301782345732,NaN,NaN,NaN,NaN,2.10680641889481,-101.731697741666,2.40600933852813,stable,stable,1,0.57216912080655,0.180719148083929,0.191733286879923,0.891395219362703,0.328417643009369
86,1.97411471247673,2.84295749664307,-0.554867502255312,-1.87394746286797,1.97411471247673,0.00430578785069935,0.00616672992864365,0.00752119452135493,-0.020621774408131,-0.18510991305885,0.187105126750024,0.0120777354070795,0.157850237711136,0.159258389091074,15.440390942184,1.77631928458557,1.62477376492508,0.0258035733828586,0.0464966269424457,0.110020615548833,0.384400645124385,0.00163794419362113,0.00747123018794767,NaN,NaN,NaN,NaN,2.01104491577433,-105.279667622794,2.03590318801862,stable,stable,1,0.55828226781201,0.196868512099674,0.121565893434405,0.96037533934813,0.351101948644963
87,2.01303476460126,2.97215580940247,-1.16756823013893,-1.61440097094998,2.01303476460126,-0.0623261025200113,0.0108810738647837,0.0632687981850915,-0.0760178801356544,-0.139143821322061,0.163610793309846,0.0105552129247186,0.162357976104822,0.165015457271643,15.4192854780036,1.10768322402234,1.05638267599921,0.176781442819803,0.240278891022575,0.175552821759202,0.399599506847925,0.159341665592894,0.03759526386924,NaN,NaN,NaN,NaN,2.06469467336038,-124.238920485483,1.51381952152008,stable,stable,1,0.569812362014665,0.227401514747538,0.220930431933169,0.894605903661358,0.321976523662577
88,1.98316976266938,2.99964332580566,-1.12792410393028,-1.60693239706912,1.98316976266938,-0.0597987747570719,0.0104607480820493,0.0607068423893314,-0.0716347865458878,-0.138238404975015,0.160420285562084,0.0103471180287705,0.158391736869456,0.161001016120195,15.4469538782741,0.864482761668239,1.00460391457438,0.176439730650792,0.240293175231562,0.139526445994083,0.470120967290467,0.156710710908224,0.0426945361125775,NaN,NaN,NaN,NaN,2.00959748573364,-123.70580417537,1.88583763350666,stable,stable,1,0.561045473269208,0.239836139477041,0.229076174393443,0.897094453646983,0.337988246224852
89,2.61265074332555,3,-0.239292720201754,-2.5684415414876,2.61265074332555,0.00736799578283742,0.00389905649933825,0.0083360664249358,-0.00939926545294872,-0.344265379296247,0.344701205075463,0.0222565307320711,0.20139127153758,0.204099137190842,15.4156708447171,1.93236533911485,1.83744049235942,0.0293768516990738,0.0505516217132237,0.13015314086865,0.439860904195945,0.00977934071765567,0.00757789282187183,NaN,NaN,NaN,NaN,3,-94.0907171926139,1.86184287323166,stable,stable,1,0.737526692324982,0.0886818615963225,0.0603110879998565,0.95569167118888,0.342154159613933
90,1.93342461553561,2.90797090530396,-1.06487901875314,-1.58000225869579,1.93342461553561,-0.0857339577598963,-0.001821494099531,0.0857533052070316,-0.0668830712806749,-0.136497362619767,0.158010976491239,0.0101932745812615,0.193127154667394,0.195756803351067,15.4145014709762,1.11789229841075,0.937968360773852,0.176584202587941,0.240262765284694,0.179272019708187,0.462807679731602,0.159586244495264,0.0365485568704186,NaN,NaN,NaN,NaN,1.99637079272466,-122.311062912018,2.26681975530017,stable,stable,1,0.554731258146375,0.234994354485834,0.225214216783689,0.895554707812436,0.320323546796361
91,1.85914127194152,2.63324117660522,-1.11421053933614,-1.46814248814821,1.85914127194152,-0.0498311052824557,0.0072167612894313,0.0503509751363349,-0.0680554302547322,-0.116378000871562,0.138671091218389,0.00894415613813172,0.146360305376399,0.148557572941911,15.4583866104123,0.942011829903373,0.895721106963912,0.176188592073419,0.240294431077426,0.170544743492839,0.467330965810995,0.159379692169752,0.0360601929939026,NaN,NaN,NaN,NaN,1.94546366280019,-126.251978914843,2.22346387675816,stable,stable,1,0.525482520439453,0.183403490657663,0.193990310589038,0.897466373745048,0.324202336225405
92,2.61093459049861,3,-0.46437277561438,-2.5376257127518,2.61093459049861,0.00532361734381573,0.00385972504659352,0.00657558963581799,-0.0198350985785108,-0.335457400653657,0.336681235247692,0.0217411835048272,0.196910361298188,0.199584323592869,15.4096961989074,2.0906541183573,1.85307646642808,0.0259259351548222,0.05567740482593,0.135748720486108,0.449837730670382,0.000642904702537032,0.00502742908622179,NaN,NaN,NaN,NaN,3,-99.2513675644137,2.00846377310296,stable,stable,1,0.736166088851535,0.0887452419043802,0.0553610365973313,0.956050577827847,0.339667235339507
93,1.69239420509663,2.36642694473267,-1.01889566946911,-1.3387611739421,1.69239420509663,-0.0416174785539863,-3.0226249710067e-05,0.0416174895304568,-0.0565500471906543,-0.0953415009547326,0.113088388823232,0.0072933461524258,0.124798288121303,0.126684862715777,15.4678434909848,0.660178913956326,0.885063771820388,0.176477997929855,0.240196200707208,0.129051557328672,0.386290904959424,0.159420909791048,0.0350014774056994,NaN,NaN,NaN,NaN,1.74681180591764,-126.657123786368,2.13635484403948,stable,stable,1,0.476642093902256,0.159287239498692,0.179153891349835,0.899619808503969,0.342643752298368
94,2.67592015336542,3,-0.271575020223793,-2.62898458757619,2.67592015336542,-0.0262759774210882,-0.0124296480844652,0.0290675616613638,-0.00896346430857458,-0.3530956820462,0.353500402082813,0.0228127706698817,0.197628904123515,0.199868472655198,15.4376839830534,1.60781611133803,1.19618120403694,0.0630000317338031,0.240410472603437,0.112036194881273,0.405588934318293,0.00184971276293525,0.00820475926575412,NaN,NaN,NaN,NaN,3,-94.2734617915732,1.77093026855792,unstable,unstable,0,0.75355240209515,0.0782470184640315,0.0507538544636341,0.946468576655152,0.350206135608323
95,1.7995218671098,2.86088728904724,-1.14136936431421,-1.35801008839745,1.7995218671098,-0.0716565929084868,0.00700094942404521,0.0719977819109078,-0.0754484009224699,-0.102979882829879,0.134395326602139,0.00867022360428605,0.186246112401744,0.188440068902857,15.3746464539267,1.01388941980737,1.1447765445615,0.177099479915042,0.24026951964057,0.175867508256421,0.48145566864925,0.159484650247286,0.0370415112650892,NaN,NaN,NaN,NaN,1.86493072097439,-128.583435678336,2.29645503110608,stable,stable,1,0.517560511676519,0.252006813286256,0.235555795208358,0.894489313179581,0.321836662997146
96,1.7291746477286,2.46734309196472,-1.06625757550047,-1.33939915850741,1.7291746477286,0.00476088293077778,-0.00184414200279326,0.0051055720548277,-0.0626427980000181,-0.0950285216130092,0.117712129326926,0.00759899867929321,0.137675079380345,0.138614824447733,15.3899096871773,1.81986193458089,1.68284627898929,0.0318135639406808,0.072641723298322,0.129572597151062,0.536330357951609,0.0122194513536337,0.00399809569909193,NaN,NaN,NaN,NaN,1.76269102467469,-127.19753908103,1.75943430515405,stable,stable,1,0.48883620428384,0.167023921496512,0.107099073147677,0.956571939208751,0.342412179043972
97,1.7450468532191,2.70234990119934,-1.08061480643255,-1.34029906374457,1.7450468532191,-0.0700764977072753,0.0194697692451521,0.0727309249589006,-0.0681386045673146,-0.0996685355002067,0.126505681907289,0.00815897399529357,0.184980687800743,0.187040506325672,15.3867267133436,0.895768156970711,0.860875924976872,0.176548272122663,0.240234959229895,0.129942237669636,0.465332921555639,0.159858419666121,0.0321259498840837,NaN,NaN,NaN,NaN,1.81622668042125,-127.513201967813,2.1102693439125,stable,stable,1,0.502753928790228,0.228727188704685,0.2199666633353,0.897923660437652,0.342247894369051
98,1.86485782325668,2.62364315986633,-1.18618029298593,-1.41580646358233,1.86485782325668,-0.0660621715962567,0.0120431843917088,0.0671509404722374,-0.0775377963651756,-0.107114898310909,0.136864603285963,0.00882974795188668,0.136773117917154,0.138965155798139,15.4183939890736,1.04499542566145,1.08507247286689,0.175014663361256,0.240265961243523,0.172470150998928,0.480873878772582,0.156619184699307,0.0414781482643935,NaN,NaN,NaN,NaN,1.91962505408224,-128.853168090004,2.06913098896323,stable,stable,1,0.525088450694742,0.183037706490416,0.194514113432509,0.895756420545221,0.323346599556032
99,2.63442475398382,3,-0.155836388580318,-2.59690651345395,2.63442475398382,0.00612764239594065,0.00619245540835232,0.00871174525092195,-0.00562108787625162,-0.350407312459858,0.350696288085922,0.0226335341077246,0.194564793431625,0.197414868757278,15.4393988284552,1.58857008964248,1.53770207139776,0.0245417494275502,0.05109751436268,0.109735344280805,0.439275899960466,0.000230736939379343,0.00564391684325487,NaN,NaN,NaN,NaN,3,-92.2002194325483,2.0582341559268,stable,stable,1,0.741996241480473,0.0838515836496439,0.0524658333381688,0.963165558306623,0.351228735875198
100,1.63292989763273,2.41716432571411,-1.03296478403997,-1.23471518141831,1.63292989763273,-0.0531080378521055,0.0215169172398439,0.0573013212064692,-0.0609761106238581,-0.0839254345752917,0.109215971714231,0.00704425686027789,0.159715889199912,0.161488488889047,15.4624556750962,0.859226935444498,0.869257048712744,0.17694916716161,0.240242739296689,0.132489694970773,0.372125730371095,0.15948270091316,0.0361998524439526,NaN,NaN,NaN,NaN,1.68546986904653,-128.540481584722,1.66383840445779,stable,stable,1,0.46774567047987,0.186957988539497,0.196219576236439,0.897944470829388,0.341115691124101
101,1.66663550600714,2.422208070755,-1.06912685740985,-1.26567469475433,1.66663550600714,-0.0479789681365664,-0.0130210494868926,0.0497144758917336,-0.0619241596347691,-0.0847903966196751,0.107327304261064,0.00692214513257763,0.109536556963288,0.111284755998031,15.4615207273017,0.734832649618269,0.914335193669558,0.176300831553321,0.240165721343081,0.153578182951398,0.444975651670378,0.159483547166813,0.036453260652624,NaN,NaN,NaN,NaN,1.69807149429304,-129.55767099295,2.2322382573961,stable,stable,1,0.466693086134842,0.179118147648422,0.191608196254045,0.898891836883221,0.331743029799379
102,2.62269730210304,3,-0.152267305118302,-2.58440926745718,2.62269730210304,0.00789347876129805,0.00652194835594165,0.0102392781636516,-0.00556542909554963,-0.347620044341305,0.347913664817063,0.0224611368483605,0.201239062155267,0.204111638142187,15.3786334954734,2.02259086537727,1.56671897281418,0.0337057928550063,0.0717914851225052,0.125711941688399,0.481441246966862,0.0265438331829782,0.00609893632792521,NaN,NaN,NaN,NaN,3,-91.8482151525671,1.5,stable,stable,1,0.740208274855915,0.0867703080234849,0.0660772390348621,0.954945383415278,0.344128025916267
103,1.70736852835636,2.58743643760681,-1.07911597354492,-1.29183669339439,1.70736852835636,-0.0678085661614634,0.0101916922966739,0.0685701993342855,-0.0667823774975219,-0.0926394703192296,0.120091958947928,0.00774727700249676,0.17244986199541,0.174379785502057,15.3777517285531,0.986585941702156,1.13065741054242,0.175986990074446,0.240293003059665,0.161430488547846,0.43880325077446,0.159484858396612,0.0369695353345354,NaN,NaN,NaN,NaN,1.75398132014352,-128.600052606655,1.87898551896189,stable,stable,1,0.490174231328773,0.210586482792638,0.210677516357342,0.895371021480855,0.328253116200957
104,2.68001619878324,3,-0.362788083394349,-2.62061575825194,2.68001619878324,-0.0278340332860778,-0.0121116173004237,0.0303549778883532,-0.0139500580367442,-0.350631841605371,0.351359994769703,0.0226801637512951,0.203753283048795,0.205942256187716,15.3109501991214,1.6337429057986,1.300635699804,0.0624819288118851,0.240217214645662,0.107182728543661,0.536639722498854,0.00189028329111485,0.00917408980989713,NaN,NaN,NaN,NaN,3,-96.2939600424606,1.92885058473147,unstable,unstable,0,0.755859437579742,0.0775614345533014,0.0507130192972874,0.945703203692894,0.352363231758373
105,1.70836283803797,2.44707059860229,-1.09500639728189,-1.29693864839788,1.70836283803797,-0.0405982562936661,0.00755888777406772,0.0412959465137579,-0.0646124638342114,-0.0894932826665837,0.113026009500378,0.00729055757657656,0.104411125789181,0.106261657837147,15.4423748810652,0.825719518169822,1.06240737160104,0.177177447820958,0.240206092204732,0.17115370258599,0.467249691885619,0.159481946220596,0.0380020468486182,NaN,NaN,NaN,NaN,1.78074250763471,-129.221424924807,2.10960486253288,stable,stable,1,0.476815755044222,0.173780169654495,0.188967892906399,0.896575993384179,0.32393168773956
106,1.82751307825247,2.82936930656433,-1.06935765984871,-1.44928384359482,1.82751307825247,0.00669914499525622,0.00139334679978043,0.00684251115979541,-0.0666331583410833,-0.114510748172481,0.138598061329418,0.00895461435063723,0.196468357730536,0.197571095799879,15.3375617530842,2.21290909070857,2.21958797316939,0.0215078098806175,0.0767565102168571,0.138322950876386,0.523843288999571,0.00023652753879275,0.00363529036180173,NaN,NaN,NaN,NaN,1.88415857146299,-124.959215831678,2.19411510486185,stable,stable,1,0.526851040027302,0.226672111749464,0.137430314168181,0.954419332414936,0.338523132943829
107,1.68872905588474,2.3122284412384,-1.01511698976685,-1.33436806229598,1.68872905588474,-0.0405823241767589,0.0112172422642965,0.0421040563319435,-0.055810725576419,-0.0942826367534994,0.112125590546628,0.00723117733526658,0.116963941311213,0.118718995001704,15.4610884157761,0.762748915518661,0.882762508881587,0.176885760088793,0.24021079208662,0.150846280649159,0.445081111051925,0.159406692682835,0.0368921853167928,NaN,NaN,NaN,NaN,1.72726488943798,-126.550224489005,1.95726005570301,stable,stable,1,0.474071547236273,0.148006438698763,0.173066622304604,0.89862810162103,0.332957208600374
108,1.68135685012454,2.40440058708191,-1.02454299969315,-1.31407130292936,1.68135685012454,-0.0594045642554179,0.00755214754039207,0.0598826952203049,-0.058087386461901,-0.0926727018466188,0.112787623204238,0.00727737133532887,0.124838492749935,0.12648347647686,15.3920146235034,1.10866928559458,1.17399916975836,0.177095758468927,0.240213317038778,0.153168051540959,0.528195054500346,0.159572718038263,0.0369370271057189,NaN,NaN,NaN,NaN,1.72684939224008,-126.925173742408,1.98454362725178,stable,stable,1,0.47365852199525,0.17366333493913,0.188550855200745,0.893516868616335,0.331925310426241
109,2.62856053948402,3,-0.307086148249128,-2.57555589717531,2.62856053948402,0.00397084856994953,0.00593193532968204,0.00713831178367828,-0.0124646183395524,-0.344744352968721,0.345372393145695,0.0222984364565929,0.200935970379388,0.203723215224349,15.3831660258736,1.94943374153078,1.54161619885023,0.0328380534210643,0.0579742009012044,0.125836097710254,0.462901294118088,0.0178553095089828,0.00543955242769851,NaN,NaN,NaN,NaN,3,-95.4171668207032,1.67329131435189,stable,stable,1,0.741694120240609,0.084882569109769,0.0608432536455825,0.956151295186474,0.344072845462109
110,1.58874210451736,2.33974814414978,-0.919065732900479,-1.28079682214061,1.58874210451736,-0.0384984638139883,0.00668299273512098,0.0390742128255278,-0.0461475865974765,-0.0876791488186811,0.10141507058681,0.00654105661292144,0.117784575172801,0.119387355261919,15.4426812121494,0.801082293162427,0.94658546227509,0.17623508143871,0.24021865116875,0.14394457206381,0.427290064826747,0.159481540784787,0.0382370462852994,NaN,NaN,NaN,NaN,1.65985778043302,-125.136897277648,2.21154106012859,stable,stable,1,0.447542032257013,0.176139964601975,0.190469044021805,0.89815078405935,0.336024634638307
111,1.55089196380304,2.13640189170837,-0.933509026574434,-1.22684546678216,1.55089196380304,-0.0288204266723843,0.0152460962320395,0.032604607709569,-0.0469806997198758,-0.0792774808265296,0.0940277600136423,0.00606579731857988,0.0970588863756495,0.0986373780746431,15.3965060960588,0.960612436799266,0.981681786055571,0.177536521662057,0.240149706219457,0.135547125740824,0.493105008120122,0.159533504380287,0.0377244493034696,NaN,NaN,NaN,NaN,1.59306398738573,-126.486183134521,2.46561952446076,stable,stable,1,0.433298665962405,0.137717245192122,0.167252108404743,0.895970855989398,0.339756833004078
112,2.63988352696101,3,-0.245392481514249,-2.59491266666739,2.63988352696101,0.00754623968577893,0.00699335542130008,0.0102884767309768,-0.00962255047096584,-0.34936841021901,0.349814825398638,0.0225713392722615,0.193944354514775,0.196736513513006,15.4363616959221,1.40727226696062,1.25450926211761,0.0293036673056474,0.0493595553047904,0.106223095955874,0.438980080276127,0.00997268107719881,0.00521739898131689,NaN,NaN,NaN,NaN,3,-94.1056534981467,1.85752353235301,stable,stable,1,0.743316243225537,0.0829124271677854,0.0560769949948547,0.964434168618704,0.352789735130723
113,1.72696668193454,2.37103652954102,-0.999286604800278,-1.39402477110886,1.72696668193454,-0.0325652047788844,0.0159242406057492,0.036250158636349,-0.0540053217887211,-0.103302613777297,0.118959980353368,0.00767157129839297,0.124257167659801,0.12614497466637,15.4745268012739,0.822156444344062,0.711385285181506,0.176854800639663,0.24021258557067,0.146845023840687,0.377884613355681,0.15956330702165,0.0365687501965687,NaN,NaN,NaN,NaN,1.77528590773906,-124.910768203071,2.22206705201864,stable,stable,1,0.485753443449151,0.151561578128121,0.175151699564035,0.899523343233896,0.334735544959695
114,2.68370557122825,3,-0.453538969296604,-2.60387814219289,2.68370557122825,-0.0350259217309723,-0.0065040476762736,0.0356246800586256,-0.0173470657336653,-0.34877048522943,0.349814271953864,0.0225810592541491,0.201725300969905,0.203887462537878,15.4218886618141,1.85454759863378,1.35724307553872,0.0631032652928952,0.240453985582132,0.130311016526177,0.425317964353162,0.00189322879939252,0.00903446888593714,NaN,NaN,NaN,NaN,2.9979851142919,-97.9705526263991,1.83747522972707,unstable,unstable,0,0.756432311501776,0.0776974378177249,0.0507451591256552,0.94321286919934,0.342083992655033
115,1.88213278241709,2.68972182273865,-1.08038388931735,-1.52681671479616,1.88213278241709,-0.0488836080459795,-0.000358679756757146,0.0488849239209888,-0.0637419203468726,-0.123133108371805,0.141289193139309,0.00911683145199355,0.128403461210622,0.130692921826034,15.3762146676467,1.18030219958655,1.19602456238387,0.177042161682095,0.240549684079349,0.179756726852025,0.517015450179209,0.156758769775383,0.040895514876497,NaN,NaN,NaN,NaN,1.89315516909655,-124.179562229341,1.79434153414161,stable,stable,1,0.528040659676431,0.190669770124532,0.19894352273806,0.892807780314899,0.3201081213991
116,1.6655884796381,2.57946968078613,-1.01277577300772,-1.29416158196088,1.6655884796381,0.00527392295913723,-0.000350923889276643,0.00528558520458992,-0.0584646608096365,-0.0914029829530804,0.113445419457614,0.00732375286457335,0.169492149884928,0.170371880842108,15.373477853667,1.77608285894907,1.80556214430161,0.0327455107338048,0.0716464667436273,0.117629680144279,0.50051331162011,0.0241904364886053,0.00497557440328782,NaN,NaN,NaN,NaN,1.69700248239393,-126.66944677606,1.65139613360103,stable,stable,1,0.478231304071915,0.206592294212482,0.13651598141655,0.955485748178985,0.347720142158098
117,1.63343509709513,2.3592164516449,-0.960318084140037,-1.30289418153787,1.63343509709513,-0.0442606413380146,0.0126528124719837,0.0460336619779869,-0.0509433567821685,-0.091102245715526,0.107373457295649,0.00692576450166297,0.132903452540202,0.134642033163887,15.4426814227685,0.825958565208865,0.966169449753959,0.175704166164228,0.240214164739129,0.150907360350755,0.426832221701317,0.156684066542656,0.041282147168651,NaN,NaN,NaN,NaN,1.6721231422542,-125.43586516234,1.92646236479518,stable,stable,1,0.462511099191478,0.171740309469662,0.187693238469154,0.898066911086035,0.332930062066331
118,1.69184959826826,2.44092798233032,-1.05827214024518,-1.30683245475484,1.69184959826826,-0.0392779753869411,0.00958989701968246,0.0404317384655331,-0.0608175888857728,-0.0908209314375762,0.111722485723808,0.00720649643079394,0.118640860066321,0.120591488961479,15.4414048864699,0.798555592925763,1.02766566448409,0.177398220322284,0.240205575133629,0.153992435764729,0.469586797640427,0.159498507076576,0.0379499106264729,NaN,NaN,NaN,NaN,1.78141492798702,-127.597402747289,2.02565810503044,stable,stable,1,0.475278190663832,0.175955121799311,0.190261265947489,0.896952008530638,0.331558917437898
119,2.57340771714846,3,-0.363342221130613,-2.51380208839735,2.57340771714846,0.00770809409977403,0.00683228714055634,0.010300236027489,-0.0153539042319627,-0.329922403391861,0.330782240254907,0.0213484907951367,0.209247207823052,0.211894882353094,15.453023254734,1.61265851830522,1.47368012955762,0.0250792159420289,0.0449967389300959,0.116452439477865,0.396171614016975,0.00101813379602727,0.00780072179709876,NaN,NaN,NaN,NaN,2.88139783872518,-96.8469577847742,2.04719811166084,stable,stable,1,0.728621034376875,0.0978716402466355,0.0620121141653627,0.963210588367206,0.34824336023206
120,1.7395993688622,2.44389224052429,-1.03381780698453,-1.37969061003242,1.7395993688622,-0.0556810782270609,-0.00059597946684435,0.0556842676530183,-0.0585145931881599,-0.101860951671431,0.120841653829914,0.0077931949923641,0.138776093745909,0.140625657501038,15.4707402662591,0.792287594071543,0.788761522294015,0.176017187406458,0.240247561842555,0.135223645196767,0.355650625681425,0.156827222508445,0.0407433983140581,NaN,NaN,NaN,NaN,1.76744363452008,-125.864521808831,2.14488669339037,stable,stable,1,0.492018296530129,0.168674678527023,0.185721576102857,0.899568877525327,0.33990060213477
121,1.69139300568684,2.50602102279663,-0.981355951193901,-1.35435473001379,1.69139300568684,-0.0591905586647252,0.00365602426777334,0.059303362033605,-0.0548467614361256,-0.0988217782054816,0.116806237597371,0.00753454499442028,0.144091598459464,0.146033217724649,15.3777604913842,0.912692027248183,0.949906091177587,0.176138996209887,0.24018204107418,0.143655001729627,0.508180244463103,0.156742056996814,0.0403065644644209,NaN,NaN,NaN,NaN,1.76448514358837,-124.664357217421,1.78187351684036,stable,stable,1,0.480244778394753,0.194163586889198,0.200818221109064,0.89729580239314,0.33615333256461
122,2.60740602614489,3,-0.384854265314093,-2.54205013843767,2.60740602614489,0.00565009127357104,0.00490120468599225,0.00747966167508103,-0.0168170877518473,-0.336792134861056,0.33778013775789,0.0218036287700014,0.207053799954938,0.209783707844635,15.3867333823563,1.76618508442246,1.59518146223969,0.0169406875102417,0.0462635403804066,0.12320144886584,0.429153935462721,0.000124403798974684,0.00995156789278854,NaN,NaN,NaN,NaN,3,-97.1526305433791,2.37822370716811,stable,stable,1,0.737265015207564,0.0897049154244982,0.057496991793035,0.965118919092534,0.345243800504071
123,1.63761421578042,2.23196244239807,-0.947411577572122,-1.32221650110436,1.63761421578042,-0.0436062320002363,0.00905677008985589,0.0445368224474866,-0.0490642191205892,-0.0923614182793345,0.106711572874592,0.00688201859922058,0.10416675196969,0.105851675877355,15.470195016115,0.855201693022604,0.752881588688903,0.17554261677127,0.240168532634888,0.132593039940844,0.414687606827658,0.159482648178929,0.0360272694172134,NaN,NaN,NaN,NaN,1.66518818535526,-124.488998271363,1.62664947979097,stable,stable,1,0.457867459383584,0.141893435104343,0.169118063273642,0.899593751543775,0.341069760026292
124,2.67484239445013,3,-0.560104009907764,-2.58067116318855,2.67484239445013,-0.0310578423711601,-0.00770339838315954,0.0319989362229668,-0.0226548652414334,-0.342202109142974,0.343788251858754,0.0221834555116909,0.201266858233713,0.203353617084045,15.422396644083,1.38701419988208,1.16083019022509,0.0632272141219313,0.240286061842334,0.0967060110104135,0.452472051932412,0.00185076392381662,0.011271127336104,NaN,NaN,NaN,NaN,3,-100.530616564359,1.76399249219785,unstable,unstable,0,0.753962028603511,0.0790269328895976,0.0523373132362604,0.948367615588192,0.357019550662038
125,1.53193878965313,2.24342846870422,-0.794813733503434,-1.29741559375795,1.53193878965313,-0.0362592772382138,0.0102578703608083,0.037682344541931,-0.0347881367124155,-0.0890395369663989,0.0970133035017031,0.00625682872079548,0.102234187127153,0.103852833480624,15.4294713106343,0.756443621924104,0.819676422845419,0.176269880323177,0.240158707497901,0.148531682334351,0.480016365556964,0.159588301809591,0.0365272705875742,NaN,NaN,NaN,NaN,1.59718321662841,-120.692341177793,2.24802945882375,stable,stable,1,0.429287577270293,0.166993607619184,0.184406942559133,0.899481259486651,0.333985918962511
126,1.55039826075236,2.21927976608276,-0.864317076872016,-1.27405064924108,1.55039826075236,0.00449715151869592,-7.33549476216465e-05,0.00449774974075366,-0.0408102997053069,-0.0854979633940936,0.0965658563340598,0.00623570787235885,0.110747593182027,0.111519114565925,15.3673901201234,2.06234238686178,1.75681975347258,0.0323712955141194,0.0760269021677918,0.128077961761586,0.521568695078289,0.021214373737372,0.00832947307195807,NaN,NaN,NaN,NaN,1.57811714801433,-123.111297136965,1.66122330769105,stable,stable,1,0.435743359113814,0.151322926151812,0.103251265539924,0.953806649711742,0.343076461439295
127,1.46794130039864,2.16214394569397,-0.727578754180609,-1.25985485494911,1.46794130039864,-0.0468556766150653,-0.00651621650622096,0.0473066116796745,-0.0303424522872072,-0.0853041521352483,0.0921916978068333,0.00594635904292208,0.118672437528144,0.120163747772871,15.4350243520104,0.787070046118339,0.853309280483173,0.177058453048062,0.240154392542619,0.130196328930232,0.346299822518282,0.159495216746528,0.0372218597451254,NaN,NaN,NaN,NaN,1.53181850141805,-119.504479623187,2.14021419878181,stable,stable,1,0.415483762994211,0.16486847399939,0.183343069123591,0.898582078766957,0.342134964919897
128,1.61970917910946,2.23079514503479,-0.857356357421124,-1.36201409367845,1.61970917910946,-0.0397034612594097,0.0105252631168116,0.0410748828319152,-0.0403498704081647,-0.0978235371380743,0.107430896173375,0.00692880195889864,0.104334816008966,0.106085076273855,15.451727873438,0.723586351926518,0.869130680715349,0.176128111619715,0.24016862538203,0.14487923388764,0.417684016145064,0.15949824299897,0.0356819169384279,NaN,NaN,NaN,NaN,1.67347133841587,-121.814224359451,2.28356566779782,stable,stable,1,0.453139463017293,0.145024737519051,0.170878193034038,0.899421738933671,0.335609229383271
129,2.62682711958885,3,-0.511109519224604,-2.54447516207163,2.62682711958885,0.00822049049751913,0.00468682078430533,0.00946270326513512,-0.0224151061064365,-0.336916217472064,0.33843948862018,0.0218574604724953,0.196237672024213,0.198908620185461,15.3758206534705,2.12795574320296,1.88635538452382,0.0178003606926508,0.0695740548520095,0.13533368699571,0.477439393186583,0.000172421149775211,0.00561058054490339,NaN,NaN,NaN,NaN,2.98812679975473,-100.15154225882,2.32379616471233,stable,stable,1,0.740268955927453,0.0856987270244498,0.0535360789440298,0.959558803650107,0.339851694668573
130,1.60288739123312,2.51788902282715,-0.903579563238115,-1.29873241691278,1.60288739123312,-0.056433962845042,0.0139508154300227,0.0581327568033561,-0.0472573312792689,-0.0933743590829268,0.108692688387048,0.00701041491655037,0.166898227113618,0.168528315081709,15.4650396816296,0.811503485803369,0.928965006933356,0.176170605621187,0.240220821994602,0.15105457145973,0.353863225020786,0.159380901604395,0.0367134070732718,NaN,NaN,NaN,NaN,1.67291748571223,-123.514973806059,1.83495726600405,stable,stable,1,0.461142300678507,0.216533039189272,0.214106109627009,0.898239587603618,0.332864634906787
131,1.5193703515189,2.21389937400818,-0.747541251968914,-1.31141065996442,1.5193703515189,-0.0291473131497625,0.00400875206637131,0.0294216919462487,-0.0306993164464941,-0.0907870465802204,0.0970674967017217,0.00626168946373682,0.0890036212642903,0.0906251494620273,15.438874314644,0.981945489828685,0.854789534972646,0.176660723325375,0.240156049048192,0.170331225235957,0.439522777813798,0.159550527012925,0.0346215048570485,NaN,NaN,NaN,NaN,1.54515709711904,-119.107877075441,2.09818052385648,stable,stable,1,0.423290456964113,0.161663006916899,0.180498787619053,0.897238148856731,0.324297233228463
132,2.62077368776004,3,-0.457023301545801,-2.54970267860587,2.62077368776004,0.00727689613798437,0.00691240090206287,0.0100366579912763,-0.019303970747257,-0.338030226686544,0.339186531929458,0.021893588318738,0.192896538187834,0.19557547097067,15.4476671584575,1.76481361168425,1.67384671687165,0.0205971426374404,0.0500122900545806,0.115476679622593,0.392853658716537,0.000153926889023186,0.00721791179113504,NaN,NaN,NaN,NaN,3,-98.8062245222683,2.23638649333294,stable,stable,1,0.73798807759681,0.0871659742190594,0.054992691678889,0.962683383242626,0.348677031278847
133,1.64076681891266,2.64640235900879,-0.846453884845606,-1.37610332272292,1.64076681891266,-0.0616376995191044,0.0101354395575528,0.0624654555497053,-0.0428755039812965,-0.104285120416968,0.116732800865958,0.00752846819310344,0.173981341301535,0.175782425348289,15.4408036766783,0.758320060348148,0.840044060472983,0.177217495436819,0.24023154692707,0.143441098164525,0.432437362734114,0.159565032631808,0.0369246682507195,NaN,NaN,NaN,NaN,1.68330103474598,-120.509023497779,2.2903559965838,stable,stable,1,0.472694303446368,0.237719996705741,0.226976942395419,0.898832677046567,0.336248400815767
134,2.60396001805792,3,-0.598900964063757,-2.50315055616123,2.60396001805792,-0.0147338488183564,0.0143034392917839,0.0205347188092735,-0.0286965247036678,-0.335295402450975,0.33768709834195,0.0217967347670854,0.190671156363621,0.192626206751028,15.3670811704488,1.66243916749813,1.44820937210457,0.0627100394778149,0.240496525001927,0.114995455661877,0.490723791251072,0.00192203703086475,0.00810842893007247,NaN,NaN,NaN,NaN,3,-102.269542710179,2.31769873487646,unstable,unstable,0,0.732914579498985,0.092873694385334,0.0595269749225202,0.944204170307071,0.348890908594722
135,1.65365451896513,2.40373682975769,-0.849080149143655,-1.40005550259269,1.65365451896513,-0.059017083626024,0.00181330489654549,0.0590449340279837,-0.0411459268246676,-0.104867475752005,0.115134277404804,0.00742560068113761,0.138196692594976,0.140080100605065,15.430988318101,0.779941279055054,0.844274056613642,0.176249136650884,0.240189693840283,0.162473893775575,0.441783507302025,0.156608096468923,0.0405914231680866,NaN,NaN,NaN,NaN,1.71044333906111,-120.370167332204,2.02089710503716,stable,stable,1,0.468990558511714,0.179593424500123,0.192120170646374,0.899113739751447,0.327789380544189
136,1.62131022751331,2.34452748298645,-0.760378272292601,-1.41418890933777,1.62131022751331,0.00473998949584304,0.00297308511526698,0.00559524222204226,-0.0334006532254767,-0.106408820644356,0.113395428335939,0.0073205446023596,0.137554441681715,0.138446612757423,15.3453700377415,1.91331613674329,1.67339785277881,0.019852212235927,0.0754746946733235,0.117701080133182,0.49131164091252,0.000173163977602223,0.00550415529506388,NaN,NaN,NaN,NaN,1.66149639163359,-116.91481150861,2.23402089949481,stable,stable,1,0.460038716555035,0.16374967688883,0.100328278917508,0.961892569678648,0.347688408829697
137,1.45980362989465,2.02677345275879,-0.690937947015446,-1.27440299151121,1.45980362989465,-0.0357563252344806,-0.000486141079981089,0.0357596298557969,-0.0264130613425292,-0.0858173930374779,0.0909051905193726,0.00586650005141735,0.096742504311329,0.0982279263037602,15.3698664040476,1.10316874593746,1.15344317294863,0.176797086581823,0.241367916169309,0.149539156117651,0.448357896300637,0.159498655477431,0.0371934003756959,NaN,NaN,NaN,NaN,1.50463962214456,-118.009747287404,2.29972568108877,stable,stable,1,0.408926553232658,0.134124142284662,0.164887649557989,0.893870934489269,0.3335381528366
138,1.56092536408885,2.23806524276733,-0.703506096880381,-1.37767638820776,1.56092536408885,-0.0467711390908293,-0.0110951161298037,0.0480691278658926,-0.0285594731968294,-0.101883019850635,0.107291308949763,0.00692096261141706,0.123738847215012,0.125396507181417,15.4475304922201,0.8952182523337,0.939819836083765,0.176327357989581,0.240173104842865,0.163674360289613,0.398709105306453,0.159419941463566,0.036372902213466,NaN,NaN,NaN,NaN,1.62198882751374,-116.427624599585,1.50621598606124,stable,stable,1,0.44132606519331,0.161169146144739,0.18078130489979,0.897418164596215,0.327255839871283
139,2.62883944153786,3,-0.522947405935743,-2.54518641992554,2.62883944153786,0.00476559330548556,0.00522937556073009,0.00707511472051513,-0.0229293791800948,-0.336755225305712,0.338340548425581,0.0218407262434434,0.200322093211997,0.202991402817589,15.4165615633394,1.69110283310463,1.71226350753526,0.0192063991699613,0.0482535929151571,0.113166254196707,0.41496577631262,0.000297507542058696,0.00745905364434498,NaN,NaN,NaN,NaN,3,-100.33835635475,2.28642926664819,stable,stable,1,0.74162213164028,0.0848082300194099,0.0537295467292924,0.96365606488142,0.349703887023686
140,1.58579057819989,2.31797313690186,-0.747147152092425,-1.38566169367809,1.58579057819989,-0.0407904743073498,-0.000771634706485254,0.0407977721737206,-0.0312102645397533,-0.102238300788776,0.108253658547694,0.00698234490161156,0.116395304366428,0.118340948678411,15.4491673757178,0.884220724764428,0.846359394000117,0.176726504097539,0.240187337199434,0.152112946747082,0.41769168483839,0.159312294728927,0.0364356886329522,NaN,NaN,NaN,NaN,1.62484937329115,-117.662804067615,2.40701858230488,stable,stable,1,0.446545677255654,0.172220667273124,0.187387206008915,0.898039332732366,0.332394245890186
141,1.55483111151222,2.24953937530518,-0.767744774813704,-1.33475513088015,1.55483111151222,-0.0433463879605453,0.0109620353207996,0.0447110228869858,-0.0336247129185232,-0.0948789402870945,0.102676919463654,0.00662349180498546,0.121866180914576,0.123523069167666,15.4085030495053,0.901674280985924,0.995118765029399,0.176900263255011,0.240170654420332,0.156373530894412,0.491042573473514,0.159610255953236,0.0367885075843946,NaN,NaN,NaN,NaN,1.58700801541868,-119.377240163094,1.82705816959903,stable,stable,1,0.439326243570124,0.16450638021603,0.183019358785987,0.896646494439517,0.330500652935817
142,2.62543351133664,3,-0.625148053551635,-2.51713959044877,2.62543351133664,0.00494619956548549,0.00649565455003279,0.00816446067875709,-0.0294478921570045,-0.329364976613934,0.331863717115773,0.0214288609968608,0.191545841754333,0.194224781199104,15.4077906546174,2.05582440038394,1.82704088022635,0.0266266112602614,0.0543685596662947,0.131321993282272,0.377260930609641,0.00490368017310704,0.00577208316237698,NaN,NaN,NaN,NaN,3,-102.460692774955,1.98009727786629,stable,stable,1,0.738960559262926,0.0857742777403604,0.0557429193862595,0.956178467165074,0.341634669652324
143,1.44576548764835,2.24103856086731,-0.644041930555552,-1.27361398113023,1.44576548764835,-0.044256092306885,0.0115781275840652,0.0457455434400819,-0.0255656982976511,-0.0893236945357035,0.0947384704574853,0.00611037439406973,0.158042309812087,0.159523161852486,15.4452841248204,0.856024593954376,0.711622568759926,0.175640769581828,0.240176373717425,0.126809506230244,0.366431084701567,0.157002602761065,0.0410751900933183,NaN,NaN,NaN,NaN,1.50542716708844,-115.316950545559,2.05175352380318,stable,stable,1,0.417442095743389,0.187323124438282,0.197109241984649,0.899862387502045,0.343640219453225
144,2.69141178300568,3,-0.582712184765093,-2.59064578585422,2.69141178300568,-0.0316017903469811,-0.00736312629836823,0.0324482477496131,-0.0244857007215006,-0.344396305938863,0.346282694091878,0.0223446436635721,0.196756622476294,0.198892810091003,15.4125070611738,1.50001501283427,1.09814600864068,0.0624187235432031,0.240359104617796,0.106908070320366,0.417831536914127,0.00185841242712397,0.00783710031880314,NaN,NaN,NaN,NaN,3,-100.955060334027,1.64557681352033,unstable,unstable,0,0.757488370819714,0.075381194244485,0.0489045322867957,0.948376515916809,0.352485302079837
145,1.62335150825734,2.37794232368469,-0.738954279424733,-1.43394756047754,1.62335150825734,-0.0414738739484339,-0.00611063542432004,0.0419216183559216,-0.0304904330896066,-0.108561068031792,0.113849177214139,0.00734264508986538,0.106393131333454,0.108342775389609,15.4637397303597,0.798103746517769,0.785683381756959,0.176582157556952,0.240185998012654,0.153123686666179,0.426740566348667,0.159299156984066,0.0363474135700686,NaN,NaN,NaN,NaN,1.68254359450145,-116.590495520199,1.93813193179274,stable,stable,1,0.454562290613213,0.177468563503073,0.190498004726302,0.899264879499366,0.331945028148365
146,1.7291057852904,2.3723669052124,-0.819063122500207,-1.51127889080637,1.7291057852904,0.00355479693897248,0.00225522162579947,0.00420982254481133,-0.036933834258275,-0.120126147014039,0.126987746868961,0.00819467458870152,0.118657766487999,0.119662493352635,15.4281480901726,1.43173485364639,1.45353670729766,0.0279122238928018,0.0490524710150795,0.10377157973575,0.425036131792128,0.00969147211849477,0.00624979454829046,NaN,NaN,NaN,NaN,1.779143412243,-117.297381887505,1.88329390993812,stable,stable,1,0.485027374747967,0.145505552782333,0.0938833051739675,0.96337389721761,0.353879297895222
147,1.42611401593125,2.20452451705933,-0.70190714724684,-1.21899741591969,1.42611401593125,-0.0632900915965201,-0.0043682703565452,0.0634406610952611,-0.0299173949425823,-0.082173447726512,0.089830335269496,0.00579370010277411,0.154401594028175,0.155811632505456,15.4379799304008,0.796708891923067,0.777665360946237,0.175562754295261,0.240188426872741,0.132240337178964,0.391029921325902,0.160930962075336,0.0328693616368112,NaN,NaN,NaN,NaN,1.48754464037965,-118.732441752547,1.82216459997274,stable,stable,1,0.411459397416092,0.186773150621281,0.19554125754691,0.899848539436968,0.341226516809349
148,1.71115762675369,2.2441840171814,-0.768028108350143,-1.51836891053982,1.71115762675369,-0.0329253662460665,0.00997248681015447,0.034402474265906,-0.0323742969263514,-0.12136337656961,0.126655135080194,0.00816852933996277,0.112335798446357,0.114300089011011,15.4198112962654,0.853940850623162,0.823125480359154,0.174966543692163,0.240186986750908,0.133920583720812,0.47108882841239,0.156863469359545,0.0418585249562967,NaN,NaN,NaN,NaN,1.75445964810256,-115.915142708198,1.69355373451966,stable,stable,1,0.479168718269852,0.126238058128318,0.160681214172412,0.899339778410486,0.340479740568528
149,2.57400091648102,3,-0.600345219890674,-2.4710404157257,2.57400091648102,0.00715216741078731,0.00327143736820979,0.00786484590605865,-0.0277586822837009,-0.318944393586185,0.321282135496706,0.0207435980534547,0.202548502816527,0.205107603177731,15.3472416607408,1.94131595560401,1.6739625742894,0.0318120632394958,0.0705494575473143,0.122418734037116,0.484725083747999,0.0222685764913059,0.00468182357777502,NaN,NaN,NaN,NaN,2.89228411426449,-102.374592577792,1.66779662670538,stable,stable,1,0.727421765030484,0.0972916822078817,0.0699746357329852,0.955688208502518,0.345591673761282
150,1.5049274429983,2.32727336883545,-0.647053512198803,-1.33726830658993,1.5049274429983,-0.0563451099082753,-0.00292136464134846,0.0564207921066635,-0.0262551363806037,-0.0980996399169934,0.103427259067389,0.00666945596819177,0.151128790877742,0.152718590576667,15.4618570324946,0.661563732562782,0.667626345186983,0.17623477255492,0.240166280752717,0.120631262811881,0.395058941665567,0.159614346550405,0.0364894080923806,NaN,NaN,NaN,NaN,1.57055207434036,-114.528428258895,1.67276236882559,stable,stable,1,0.431857702914881,0.19537164519958,0.201431572367662,0.901438977397363,0.346386105416942
151,1.48497731061209,2.14629507064819,-0.66014978599303,-1.31960534373669,1.48497731061209,-0.0389405537865143,0.000247235426336658,0.0389413386333399,-0.0243935624945004,-0.0922233104283659,0.0962597497873598,0.00620848345306178,0.0909207903885238,0.0925073514030022,15.4434751189652,0.891038598490551,0.790788512638038,0.17640639202906,0.240171680898279,0.143042069367704,0.43935577552076,0.159786742714431,0.0361477056612637,NaN,NaN,NaN,NaN,1.53043490962982,-115.371127707452,1.99847582938073,stable,stable,1,0.414495419777157,0.155935741424236,0.177722395190304,0.898582448112317,0.336425746947687
152,2.63156601707141,3,-0.651517546394243,-2.51768754579873,2.63156601707141,0.00624036139676555,0.00311430066840529,0.00697430849729715,-0.0309028367031765,-0.32959588819855,0.332301782082634,0.0214553436538702,0.192240559925158,0.194862834532194,15.4256570582821,1.91340508904412,1.78493921454659,0.0230042270271644,0.0491858138909045,0.120749336136981,0.390715884186905,0.000173920452606767,0.00567901614925536,NaN,NaN,NaN,NaN,3,-103.235441300153,2.13008090993681,stable,stable,1,0.740723504792147,0.0841762693834382,0.0526481563905466,0.959439466958205,0.346333628383564
153,1.47795461279315,2.33110380172729,-0.699830966161269,-1.28591119839517,1.47795461279315,-0.0454734592859567,-0.0071680131680006,0.0460349422961319,-0.0281887346414429,-0.088762478647375,0.0947339644922122,0.0061097053095564,0.124012209127909,0.125440366764267,15.4405548181187,0.784871474979923,0.744682399439579,0.176424392966278,0.24017247526832,0.114289447826902,0.389097673234273,0.156751253144226,0.0430827621127464,NaN,NaN,NaN,NaN,1.53053947457772,-117.277382087191,1.91015829184955,stable,stable,1,0.419209303431027,0.20039830693114,0.20557266672843,0.899769880217851,0.34920468985471
154,2.67621281369605,3,-0.674040491909659,-2.55283818257933,2.67621281369605,-0.0316067906086726,-0.00688596586059114,0.0323481952883573,-0.0299129817593263,-0.335495978564088,0.338175997259903,0.0218249500966165,0.202220928949381,0.204274377190465,15.4326231449789,1.64461242470456,1.29619297851466,0.062737510820758,0.240406094518338,0.11777583689466,0.433488801856204,0.00188012322128255,0.00800156696953781,NaN,NaN,NaN,NaN,3,-102.931426400997,1.71307593220397,unstable,unstable,0,0.75451162575704,0.0787826193879203,0.0510148426695178,0.94552491642147,0.347655183602374
155,1.60725044271573,2.46275067329407,-0.763362745871029,-1.38985168082332,1.60725044271573,-0.0680769000825234,-0.0124290808458667,0.0692022136605396,-0.0356025802135302,-0.105908925075511,0.114508736176843,0.00738538648681459,0.166351031021402,0.168053067549204,15.4076923748306,0.906621736694953,0.850157489088066,0.177338814539484,0.240211994973158,0.141819497249553,0.49624325846779,0.159530598012684,0.0378300644802174,NaN,NaN,NaN,NaN,1.68981233095603,-117.495671617653,1.72717239686005,stable,stable,1,0.462210731567369,0.205174624384558,0.207763649720088,0.89752732738482,0.336969112333532
156,1.60853079517682,2.36103963851929,-0.70737934182318,-1.43237299887919,1.60853079517682,0.00364559789182673,0.00390139033279491,0.00533959085677143,-0.0280606129546037,-0.107724290304248,0.112415557238028,0.00725724604762556,0.112245408992704,0.113098728259585,15.405024988716,1.76680029554268,1.76291808251595,0.0209504676445657,0.0520539251163833,0.117220620192644,0.422098181540265,0.000258974049468198,0.00700428508981333,NaN,NaN,NaN,NaN,1.64682358488304,-115.230680905002,2.21982932800938,stable,stable,1,0.451561291032403,0.170293414742462,0.104838161182951,0.961791264635828,0.347901946581047
157,1.63935679481143,2.28858542442322,-0.716646133952257,-1.45664415832264,1.63935679481143,-0.0493562675767127,0.00289896057280026,0.0494413300944333,-0.0300008822637451,-0.113228155350411,0.118858622096335,0.0076666695155601,0.128018078114788,0.129881119827599,15.4148280755475,0.929686721356918,0.855894883095879,0.17628504977106,0.2401997963999,0.13108511243276,0.380232655307185,0.1595311150995,0.0350107176429355,NaN,NaN,NaN,NaN,1.69535374865113,-115.407012304463,2.13376618007596,stable,stable,1,0.463138035915235,0.155140685513298,0.176718299181955,0.897827905365198,0.341739950029885
158,1.60699962393767,2.50961971282959,-0.763959349769582,-1.39089876299589,1.60699962393767,-0.063556414496993,-0.0125052375217623,0.0647749858293251,-0.0355951377093921,-0.106549447480593,0.114949426958923,0.00741494786144954,0.158599101343837,0.16031962965853,15.4507590449278,0.897239815771301,0.987741327364902,0.176862774645767,0.240204836262867,0.160771628370859,0.443422152383824,0.159615053487473,0.0361460026850729,NaN,NaN,NaN,NaN,1.65925020896733,-117.23842078182,1.51362521167621,stable,stable,1,0.460597158981752,0.214964934069391,0.213062985190235,0.896758046552475,0.328545942946285
159,2.59682843923569,3,-0.7429030066005,-2.45504289698331,2.59682843923569,0.00720095031072097,0.00564939335352121,0.00915255869362672,-0.037703783005475,-0.3144282454772,0.318430533632301,0.0205573339193605,0.199511002591392,0.202012593987001,15.435004556032,1.81128198331888,1.70694052519938,0.0189140307347732,0.0468515340347663,0.122581610035576,0.446954126552408,0.000279841364698085,0.00712184911625389,NaN,NaN,NaN,NaN,2.88835322200788,-105.56852442763,2.29670642461187,stable,stable,1,0.732890102593583,0.0923915702658019,0.0581490794143484,0.96289980777997,0.345519284428633
160,1.50585508306284,2.46017241477966,-0.671574959738346,-1.32424573821354,1.50585508306284,-0.0603412800100282,-0.00144971660308017,0.06035869242684,-0.0282457767152031,-0.0968108873214081,0.10296613271548,0.00664031586730028,0.164494129903236,0.166139345065263,15.4641697120013,0.806510597243867,0.686758517605043,0.176224650318714,0.240179765156555,0.110111595937824,0.395902403974113,0.156108704925358,0.0419777786702848,NaN,NaN,NaN,NaN,1.56544004446909,-115.546181583882,1.75618886257544,stable,stable,1,0.434789224496477,0.225787159914539,0.22011858937141,0.900154846081116,0.351061512916523
161,1.65195244023589,2.32333588600159,-0.75995931058842,-1.45474299932804,1.65195244023589,-0.0466635829597703,0.000833944657098213,0.0466710342539617,-0.0322696008600578,-0.11193242104635,0.11771036518292,0.00759378176434549,0.111700355111893,0.113637106884042,15.3997436435714,1.02171627384512,1.00312572243902,0.177182329030678,0.240192815172252,0.16485636413763,0.492380012231846,0.159606979232197,0.0371101831347808,NaN,NaN,NaN,NaN,1.70136515468512,-117.053321105748,2.0213450358193,stable,stable,1,0.463248072106379,0.159617631577175,0.180201626209626,0.895499362656714,0.32673050482772
162,2.56648431777954,3,-0.709980900788311,-2.4363824664068,2.56648431777954,0.00687169973101012,0.00638598435945868,0.00938088766761523,-0.0343897322033875,-0.31054057737135,0.313858057350357,0.0202633620747907,0.199488578487023,0.20194232197417,15.4360747940228,1.83687464101678,1.8775562708392,0.0291802451105182,0.0459227528808006,0.12452818933488,0.414645914811547,0.0111545066079957,0.00898069654051591,NaN,NaN,NaN,NaN,2.85921158454158,-105.062668776886,1.84812276888333,stable,stable,1,0.724784282469378,0.0992608579053328,0.0677797810685571,0.956225063137301,0.344654138073387
163,1.64897158419764,2.5558876991272,-0.766602020238258,-1.43538671432265,1.64897158419764,-0.0739456642978003,-0.00970862079634573,0.0745802828246864,-0.0361331439284613,-0.112696098871288,0.121020861199451,0.00780549847123264,0.162368607616735,0.164161077881372,15.4442451512879,0.837796184032997,0.843082554632644,0.175823935775995,0.240213270635562,0.141024989701336,0.383135444385399,0.156816738574537,0.0389543417809838,NaN,NaN,NaN,NaN,1.71874998102098,-116.787170824054,1.87499823221049,stable,stable,1,0.472557971362311,0.217729177710344,0.214499050074641,0.898881127736772,0.337322226799406
164,2.44828272422897,3,-0.740802557224775,-2.30349988133475,2.44828272422897,-0.013890641363692,0.0124089584896161,0.0186261152227652,-0.0377924222579028,-0.289215663905073,0.293571412625483,0.0189465471102631,0.220132079039187,0.221753301409016,15.4163954178501,1.54443514233666,1.35449044642009,0.0627640477898135,0.24054256784289,0.12208006948871,0.407448650807158,0.0019634038564682,0.00989430300321641,NaN,NaN,NaN,NaN,2.64390369362176,-106.697557678757,2.29688722099814,unstable,unstable,0,0.69722605340953,0.127551174839321,0.0810012572046066,0.945840703622005,0.345742191338351
165,1.58650609992799,2.2294807434082,-0.680288429953518,-1.41988225501148,1.58650609992799,-0.0418392959794705,0.0120374208045885,0.0435364925974117,-0.0266390175599204,-0.106619030112534,0.111053179013313,0.00716573543722606,0.105108590376936,0.106972169558094,15.3793376803291,1.08434616326973,1.09574498973521,0.176112023191953,0.240190682444423,0.15755379559272,0.472984343277656,0.156771925643824,0.0410396888768663,NaN,NaN,NaN,NaN,1.65443912380199,-114.70021335318,1.6868808820712,stable,stable,1,0.44446272722575,0.152650985092573,0.17619052568075,0.89481470077327,0.32997609084768
166,1.65912724375725,2.36072611808777,-0.7247150826481,-1.4804615909902,1.65912724375725,0.0028071514105789,0.00260479460807749,0.0038294978772921,-0.0293241576393967,-0.115085173152297,0.119849250270447,0.00773754010198557,0.11479275422767,0.115764665055171,15.430517194,1.87845215496407,1.73647637528404,0.0158573737269586,0.0461288575819998,0.122636564526273,0.435332138581344,0.00036080636750925,0.00978520035120451,NaN,NaN,NaN,NaN,1.6985678915868,-115.061450151433,2.40284492824115,stable,stable,1,0.465586864679634,0.158561821335204,0.0988557058598473,0.963668303256,0.345494860210545
167,1.47530276596952,2.30863356590271,-0.68677539338017,-1.28308928482323,1.47530276596952,-0.0544317053534245,-0.0128289117452671,0.0559230857897691,-0.0288879300609756,-0.0909158560333135,0.0976430269440878,0.0062972458092531,0.161168940974442,0.16265784823557,15.4345448591365,0.762193125363254,0.709067714616797,0.176679883803611,0.240195916291052,0.107562648451413,0.400486918974209,0.159627675926615,0.0361444222754908,NaN,NaN,NaN,NaN,1.53242316823457,-117.234742424214,2.10529467412534,stable,stable,1,0.425945640572318,0.197751995713093,0.202740257455014,0.900100151498351,0.352194378466038
168,1.73756914398297,2.49629998207092,-0.850677481267453,-1.50061769965519,1.73756914398297,-0.0365199636758114,0.00775685131005653,0.0373346553369508,-0.0401055347479633,-0.11930054385657,0.12767014564292,0.00823460537837676,0.114841950404942,0.116903644177073,15.4453977416171,0.855814330217906,0.846782607437454,0.176522265212175,0.240216382731559,0.130021978635534,0.436257483707451,0.15957566002347,0.0365638740379107,NaN,NaN,NaN,NaN,1.76822611766951,-118.998443980142,2.09831927687503,stable,stable,1,0.486732500564207,0.177559125381563,0.190753944990528,0.89836132002662,0.342212453939763
169,2.44737903873126,3,-0.775338139434659,-2.28934745859447,2.44737903873126,0.00611743460308021,0.00546147886034341,0.00820065591675087,-0.0402439288889378,-0.278262529705988,0.283231259564489,0.0182929966314469,0.218638038938223,0.220736342518041,15.4076713473755,2.21565542549007,2.01269792717094,0.0149408040858347,0.0526557244975401,0.137526409447531,0.426040018127947,0.000283000843714117,0.00778971623642598,NaN,NaN,NaN,NaN,2.66549340284327,-107.193726307889,2.45589650668185,stable,stable,1,0.696781678831943,0.125843169870205,0.0784643041608578,0.959306821614746,0.338877151356653
170,1.72134130341666,2.62423467636108,-0.778490265831668,-1.51878985795984,1.72134130341666,-0.052564031703387,-0.0118859985305954,0.0538911346139975,-0.0351307349884862,-0.123737200297849,0.130400139746365,0.00840925507358132,0.144865960989851,0.147021751889321,15.4715360160044,0.741865946479543,0.642736225967802,0.175518770632527,0.240204749148102,0.10708972939091,0.408097090943833,0.158907613730308,0.036664197536645,NaN,NaN,NaN,NaN,1.77840570795084,-115.675983280215,2.26049298699286,stable,stable,1,0.48842869795564,0.213031050258395,0.211776671725267,0.901361597614507,0.352404564715151
171,1.63628991972021,2.64738845825195,-0.789571573311471,-1.41621977244695,1.63628991972021,-0.0503799393963622,0.00024940390310113,0.0503805567246732,-0.0354992294282093,-0.107698097051576,0.115296919331339,0.00743710427986597,0.137052131099785,0.138820527528865,15.4161990498954,0.905082818303863,0.983299217617148,0.176210070623076,0.240231675817556,0.161178798305722,0.486542046509659,0.159565467044426,0.0360355974376216,NaN,NaN,NaN,NaN,1.68221562017466,-118.331726157389,2.31631695468625,stable,stable,1,0.46410808409783,0.236733606569165,0.226062002908258,0.897057677263368,0.32836497853079
172,2.42801636915941,3,-0.846179624447302,-2.24286949078819,2.42801636915941,0.00921996621752426,0.00605486562866778,0.0110303750994021,-0.0464591866619364,-0.266204041816531,0.272970752276854,0.017634500574116,0.218469992139257,0.22057550350902,15.3166081484801,2.01576173889921,2.12037855094556,0.0160930557327699,0.0696252137456436,0.149900072874609,0.485052615680091,0.000329158288415935,0.00530416859688095,NaN,NaN,NaN,NaN,2.5789773418386,-109.450212225276,2.37383437087142,stable,stable,1,0.691586132477645,0.130718552374024,0.0805062125777278,0.95945522699912,0.333377745389063
173,1.56221512100041,2.3304762840271,-0.740190484432071,-1.35379234859876,1.56221512100041,-0.0662895365445594,-0.000760238618329866,0.0662938957827134,-0.0334260841619828,-0.100690468193277,0.108484620102981,0.00699999206484369,0.157725429344501,0.159374607071041,15.3568774294969,1.15293523915173,1.05362764369651,0.175794177359187,0.240186834648782,0.152080798241379,0.393329144163463,0.156779639214772,0.0408129193403775,NaN,NaN,NaN,NaN,1.60572032516396,-117.151648626796,1.91174427265189,stable,stable,1,0.44846562034765,0.185012642574504,0.195528486774031,0.894765631526599,0.332408534114943
174,2.35366270663964,3,-0.776094946459517,-2.18829790259897,2.35366270663964,-0.030139573714004,-0.0103296021788622,0.0318605490353735,-0.036866170184349,-0.252971182195903,0.257800013634713,0.0166424750675624,0.23323245366743,0.234690857137594,15.3446442047409,1.623209290467,1.53258337839577,0.0630103490733736,0.240270601422475,0.116561387479732,0.519245017317782,0.00190912932254747,0.00958822815543669,NaN,NaN,NaN,NaN,2.36078838964489,-107.709824257803,1.8892368474349,unstable,unstable,0,0.674581559864757,0.151266991662565,0.09509532533883,0.943699311636534,0.348194938897897
175,1.65589737162298,2.39926815032959,-0.799888722487215,-1.43156912038823,1.65589737162298,-0.049875906337873,0.00121953517935743,0.0498908137744612,-0.0365502624286267,-0.108879967439853,0.117005023989283,0.00754646468047654,0.127725655962282,0.129533492756482,15.4460052059097,0.914376478549568,0.817865211521154,0.176768002609323,0.240182873665635,0.138904216857801,0.451164093712751,0.159549786013236,0.0379502462107146,NaN,NaN,NaN,NaN,1.70036876942666,-118.357386427334,2.01456888695625,stable,stable,1,0.467479330984091,0.176405074400972,0.190554150177635,0.898005528273354,0.338264792507644
176,1.76157906770706,2.43408417701721,-0.889187437923673,-1.50802943891547,1.76157906770706,0.00563146858579247,0.00390561971711763,0.00685326957061412,-0.0433626729440546,-0.119563044843724,0.12886212644791,0.00831473098812689,0.125215836628249,0.126255205816054,15.456525788636,1.31939870888452,1.3847407944527,0.0306266790863746,0.0502354464973669,0.0978503259404485,0.45443640862688,0.0218799422694927,0.00527490440459671,NaN,NaN,NaN,NaN,1.79740384781532,-119.424856454763,1.50709969497912,stable,stable,1,0.495005459218427,0.152570082349396,0.103184615252296,0.963439850073449,0.35651096624869
177,1.93244174467463,2.67584085464478,-0.973509168146395,-1.65530084361453,1.93244174467463,-0.0407803162511423,0.00688766478315983,0.0413578785687608,-0.0520108103655622,-0.145953441484231,0.156987601484897,0.0101298619055107,0.130662197407355,0.133191157310159,15.3712593078798,1.13814191786379,1.20056720794418,0.177412720431136,0.240254910073572,0.157336036408186,0.471503089974499,0.159729830310582,0.0347383001281433,NaN,NaN,NaN,NaN,2.00389774569212,-119.82849383685,2.06626222861953,stable,stable,1,0.541956030041933,0.174847077480889,0.188531391319632,0.892918068081655,0.330072872707473
178,1.81158317919491,2.60678958892822,-0.981268788625986,-1.50906650465944,1.81158317919491,-0.036349246650534,0.0152658241326196,0.0394247779766663,-0.0529268782176164,-0.120588650440461,0.133938018168074,0.00863998695862458,0.12985941919714,0.132010345731059,15.4217006773211,1.00302684013509,0.978470018121154,0.176451809465025,0.240221288003211,0.143287864507225,0.454840525560414,0.15945350420363,0.0365586552619517,NaN,NaN,NaN,NaN,1.88108853169074,-121.75609313085,1.85339129474782,stable,stable,1,0.509490916931521,0.186149318152384,0.195851871440824,0.896205191381189,0.336316504663456
179,2.49537007212639,3,-0.6586675917845,-2.37476596397026,2.49537007212639,0.00686606192162803,0.00643333681225348,0.00940907162537974,-0.0317029388319297,-0.297148005152213,0.30027514789469,0.01938126221371,0.215668103561993,0.217931620984396,15.43716184144,1.77141324119755,1.40043380547467,0.0314533585817426,0.0472159636568117,0.121694049641414,0.427919844719463,0.0203267241274688,0.00615693400608941,NaN,NaN,NaN,NaN,2.73243854491602,-104.018907315581,1.69172066848418,stable,stable,1,0.709018343430583,0.115266730236215,0.0804330228470611,0.959351665342418,0.345913755714927
180,1.7967593969942,2.50930619239807,-0.892524979773973,-1.53995761255642,1.7967593969942,-0.0542298071712769,-0.00137150584186382,0.0542471475204747,-0.0452498668947808,-0.126370885267437,0.136779598444562,0.00882209175232193,0.147052657049247,0.149190365746453,15.4490474337543,0.902344594279228,0.896315731137162,0.177061344216288,0.240212737540943,0.141307137546353,0.390658353230512,0.15968900681246,0.0361775473091769,NaN,NaN,NaN,NaN,1.85620598441334,-119.444845846151,1.65729117656667,stable,stable,1,0.508973912347743,0.170268339344626,0.186289367272216,0.897336996763584,0.337196827757176
181,1.84353173346747,2.51074647903442,-0.889113069134423,-1.59538990551914,1.84353173346747,-0.04621378598061,-0.000901327045338928,0.0462225746265208,-0.0447124068037604,-0.135523404246137,0.145153370561584,0.00936503628610561,0.134710008803709,0.136999469494467,15.3551866083755,1.06418527466649,1.15576879394226,0.176669688843818,0.240238817212424,0.179433759600843,0.526228737323965,0.159473864012664,0.0362370230619919,NaN,NaN,NaN,NaN,1.8944468966032,-118.434379956689,1.72574581243761,stable,stable,1,0.519008356156884,0.158597456434094,0.179212846050244,0.894222659324736,0.320251662399626
182,2.42821425120036,3,-0.447937581690131,-2.35400164751712,2.42821425120036,0.00491809560852179,0.00445854330974558,0.00663824320580667,-0.0193041762611191,-0.293899043775459,0.295229709640379,0.0190633665601684,0.223850524797809,0.226128540073388,15.3643668390889,1.95526748332787,1.92358457136261,0.0299560471929909,0.0688108375263568,0.132859721314743,0.48981961569379,0.013166399230354,0.00559591008628411,NaN,NaN,NaN,NaN,2.61222307005049,-99.3162222201901,1.79155236534812,stable,stable,1,0.692749508334773,0.129868804734317,0.0858078922268712,0.954545281688079,0.340951234971225
183,1.8040486728253,2.58823418617249,-0.948326759717564,-1.51460845725107,1.8040486728253,-0.0587654275046581,0.0016202115007751,0.0587877585481236,-0.0503606350322737,-0.122266904511884,0.135199948616109,0.0087204344439161,0.135100645565734,0.13717674453851,15.4385177726175,0.926194502310252,0.906586167240041,0.177145854129013,0.240239116864885,0.14054111024789,0.398787065797867,0.159544169267677,0.0368519402263934,NaN,NaN,NaN,NaN,1.87171872539055,-121.350351106356,2.29438250635101,stable,stable,1,0.508514994994449,0.187219496236939,0.196640922953557,0.897026653389027,0.337537284334271
184,2.558904971146,3,-0.277739647452908,-2.51251564035489,2.558904971146,-0.018316839570674,-0.0206801986256047,0.0276256624726408,-0.0105822582618084,-0.322256610619231,0.322777302935381,0.0208358482586385,0.220891346279269,0.222854727054789,15.3645445063857,1.68248221107955,1.46080675882153,0.0630140494473165,0.240196882174249,0.126210309846475,0.436440947700731,0.00185000793135913,0.00908923159514688,NaN,NaN,NaN,NaN,2.70378156394852,-95.0700514349474,1.83059125223517,unstable,unstable,0,0.726945604383225,0.1043110862788,0.0667140526400589,0.943795704798548,0.343906528957122
185,2.09815214280369,2.84149670600891,-1.20631596689183,-1.69960925439951,2.09815214280369,-0.0459085837550006,0.0102707593052954,0.0470434539452326,-0.0788380486662536,-0.153278860965804,0.175734550099661,0.0113377156108904,0.146599501898414,0.149382125204239,15.4058721934448,1.15867874434187,1.11726168375697,0.176860656663573,0.240320722878009,0.194668881189242,0.429160370326719,0.159455401207237,0.035010512775651,NaN,NaN,NaN,NaN,2.15708888634091,-124.745911655981,2.17278272826461,stable,stable,1,0.589383663121831,0.175877159944469,0.18912645872468,0.893687282590294,0.313480497249226
186,2.07115528027217,2.89065456390381,-1.13868458901694,-1.7059506504355,2.07115528027217,0.00622304466177412,0.00409380563481134,0.00744886094903432,-0.0722458922163798,-0.153956439497475,0.174488761976617,0.0112646267244556,0.164145085220456,0.165488419874399,15.4090194265775,1.93938620543015,1.71507764426117,0.0321747149327047,0.0593238780708889,0.124411800853937,0.508874836689368,0.021495834862433,0.00628801869085909,NaN,NaN,NaN,NaN,2.10837557196529,-122.363616262261,1.54122996315863,stable,stable,1,0.585405758714124,0.185752963324443,0.123292034629191,0.955198998000359,0.344705866287139
187,2.05768691601396,2.85758018493652,-1.12759788233304,-1.70782916616323,2.05768691601396,-0.0436838136058332,-0.00262246601501437,0.0437624599302768,-0.0690760569524063,-0.153995884474091,0.171147496597229,0.0110395093317839,0.133970523728125,0.136795137160489,15.4303203361448,1.00588936603336,0.931759286411272,0.176633710035038,0.240307611688801,0.154481904133236,0.424421872969738,0.159494415031961,0.0384776463573377,NaN,NaN,NaN,NaN,2.09849345512064,-122.244984043751,1.72180209063079,stable,stable,1,0.576075538369155,0.18799910316146,0.197677739980416,0.896458762713273,0.331341375940784
188,2.02038684326249,2.79694128036499,-1.14300881794666,-1.64956414160767,2.02038684326249,-0.0545609177666558,0.00478297259484746,0.0547701613507103,-0.0714203729395702,-0.144932661023375,0.164652232416487,0.0106210436043864,0.147520471149415,0.150212199941146,15.4164374647134,0.950514971610058,0.970558219622516,0.176152689109188,0.240271415675851,0.146676444934794,0.51124817983001,0.157048296237936,0.0412385312528736,NaN,NaN,NaN,NaN,2.08252249604559,-123.526280590972,2.34662601939904,stable,stable,1,0.568812264858227,0.184765944595692,0.195654639076331,0.896829508942864,0.33481046891787
189,2.49293742140134,3,-0.770324160316837,-2.33768927739576,2.49293742140134,0.00698113191920532,0.00571326586341461,0.00902095392402633,-0.0400719430191896,-0.287956627714422,0.292845792313659,0.0188958677862515,0.214361328858537,0.216601694895182,15.4627566134791,1.32206359218569,1.43628401675374,0.0264877627127018,0.0485448182178473,0.0982331996060979,0.457105182338482,0.00697637867033465,0.0066300133172658,NaN,NaN,NaN,NaN,2.71977714743149,-106.924123588306,1.94705051106731,stable,stable,1,0.708103651352727,0.115742921737436,0.0749572797183839,0.965083387430554,0.356340800175068
190,2.00731879107806,2.9368691444397,-1.09700821953779,-1.65588835978301,2.00731879107806,-0.0655180881324956,-0.000600002627554586,0.0655208354318726,-0.0681639522975439,-0.14665821421991,0.166164734081806,0.0107172334953692,0.166204642756763,0.168925163498107,15.4575933859624,0.82759744668528,0.938667186503435,0.176373289159522,0.240295492458189,0.145944139804869,0.405590250294887,0.159702115091073,0.0356628129365318,NaN,NaN,NaN,NaN,2.06580628279313,-122.281189709167,2.31085085152955,stable,stable,1,0.569070043653771,0.221160982668878,0.216643603032866,0.897935561873756,0.335135937864503
191,2.02684440904734,2.75251984596252,-1.00104624528338,-1.74701436248992,2.02684440904734,-0.0431969064206127,0.00439753777847857,0.0434201688484086,-0.054961551924017,-0.160288480825412,0.17166351984343,0.0110737641405626,0.121083321556991,0.123901999223969,15.4074472283752,0.979940815046726,1.07646991042839,0.177189561836578,0.240259525814259,0.161735834883922,0.507624798100899,0.159525168908772,0.0373840045495,NaN,NaN,NaN,NaN,2.07634549688122,-118.754548572983,1.76694044661169,stable,stable,1,0.565272242257418,0.171237337594791,0.187236661099986,0.895247706238692,0.328117406718257
192,2.47986814657847,3,-0.95594974553064,-2.25576672524863,2.47986814657847,0.00244401669899115,0.00635221803321465,0.00680616570224712,-0.0561858851811767,-0.268993961226505,0.278190147545068,0.0179601157469765,0.215338036261327,0.217453302204059,15.3778298564884,1.92588341408269,1.60202008809017,0.0293781925428503,0.0549321552309243,0.11530275951264,0.444309912105495,0.0112727974328958,0.00659791396980961,NaN,NaN,NaN,NaN,2.68099720733185,-111.612146549017,1.8288456607739,stable,stable,1,0.704788832861737,0.118277464065256,0.0783758520751189,0.957591661925788,0.348754329105493
193,2.05332526787609,2.83857417106628,-1.05642282990923,-1.74550148741276,2.05332526787609,-0.0479460880769364,0.0037785510056389,0.0480947482536665,-0.0616501199259502,-0.16084503681402,0.174768795901077,0.0112736089383528,0.142343173740424,0.14530269658705,15.43119186674,1.009285879583,0.936316781846528,0.176302033238858,0.240278980239816,0.132422185833623,0.438103856158689,0.159639242576187,0.0365732369108282,NaN,NaN,NaN,NaN,2.11900443077325,-120.570247299149,2.31157615159211,stable,stable,1,0.576613944084366,0.185498373730967,0.19554915759355,0.896562105326482,0.341145695185057
194,2.50937400353858,3,-1.00050031406885,-2.26548141699144,2.50937400353858,-0.031645066688378,-0.00915295462561753,0.0329421739429945,-0.0558724769225555,-0.267657053205287,0.277100571012304,0.0178841815852394,0.226563655417818,0.228123803033081,15.4052030039737,1.49803041799686,1.359865067938,0.0628960251830397,0.240335618822521,0.119999963706349,0.48504254880557,0.00185361895177908,0.00661430522758135,NaN,NaN,NaN,NaN,2.61715863552686,-112.220792726245,1.73988539302921,unstable,unstable,0,0.714791161550239,0.116430247760034,0.0730871812021944,0.946097094304706,0.346666682797178
195,2.01860248800871,2.94571590423584,-1.00504941266573,-1.72995624099371,2.01860248800871,-0.0583708479098543,0.000685026135199631,0.058374867421873,-0.0570806386830727,-0.159832470983941,0.172706935335272,0.0111385173985412,0.156133060020444,0.158956370428568,15.4562219143623,0.868137121983875,0.808824185754084,0.175308063748294,0.240289420919189,0.145787318033628,0.477074760544601,0.156725900269349,0.0422130526278332,NaN,NaN,NaN,NaN,2.08957514186263,-119.371133784789,2.21305422993955,stable,stable,1,0.570085270888035,0.219302577678449,0.216587703237911,0.899169843565055,0.335205636429499
196,1.93807472672351,2.89197373390198,-0.907927254704799,-1.69026324760276,1.93807472672351,0.00491256345222419,0.00333679295991181,0.00593864184215935,-0.0472581609655252,-0.151562712173514,0.16147340124347,0.0104212050853537,0.164210126657567,0.165466734479329,15.4110309279518,1.55240658741183,1.47659487090794,0.0236802413846269,0.0508049523617338,0.116393576843558,0.47441284024516,0.008643811629572,0.00821053226266011,NaN,NaN,NaN,NaN,1.98818975952798,-117.123132335998,1.59253946876838,stable,stable,1,0.549913274022135,0.215716027619551,0.136256958724831,0.964360582135174,0.348269521402863
197,1.89460861602886,2.59430718421936,-0.846207810354785,-1.68288423001285,1.89460861602886,-0.0490289869801847,0.000315289298937584,0.0490300007306256,-0.039698646575629,-0.149280129189033,0.155789735597473,0.0100490204314389,0.122597695449259,0.124996831388381,15.4129600706533,1.02844524910794,0.878091547719647,0.175115935118391,0.240249095942487,0.143298879070704,0.470086095123986,0.159486207651273,0.0368393832098377,NaN,NaN,NaN,NaN,1.96491164649544,-115.571452830696,2.46699955959467,stable,stable,1,0.530228330552038,0.166421011310145,0.18413150509124,0.897462100465731,0.336311609301909
198,1.8278697137119,2.52062606811523,-0.799981403229125,-1.62944937257042,1.8278697137119,-0.0517784567621141,0.00341130274147253,0.0518907079452583,-0.036000626609657,-0.140292536172933,0.146287006578428,0.00943333832916641,0.119374733294967,0.12164860580807,15.4805059087174,0.749184647790347,0.660966287578068,0.177061248999139,0.240259069898962,0.120717702276677,0.399964509548324,0.159671449964675,0.0363770213217494,NaN,NaN,NaN,NaN,1.88489007794024,-115.359098105949,2.08496009780998,stable,stable,1,0.511761644818121,0.165383476197381,0.183423182344981,0.900389618151107,0.346347687877032
199,2.47503974994024,3,-1.12912587246776,-2.16466942729162,2.47503974994024,0.00755717204218205,0.00289573958973556,0.00809296960618906,-0.0754241980942534,-0.24802465616239,0.264921476502624,0.0171018661658441,0.218849613491186,0.220834788883055,15.4247256577321,1.77485939692096,1.57405655377043,0.0287059910872646,0.0474846921811313,0.1237258409431,0.40815467321477,0.00979197520536037,0.0103981564678378,NaN,NaN,NaN,NaN,2.68563096804021,-116.007396076949,1.89306515889939,stable,stable,1,0.704177557760674,0.119599767357915,0.0798929972013955,0.959334093415221,0.345010737358622
200,1.86259471924127,2.77830338478088,-0.805566139097703,-1.64853835190563,1.86259471924127,-0.0736385501768785,-0.00319996300619438,0.0737080445771943,-0.0412366533156792,-0.149240247111735,0.158271075416123,0.0102079042382081,0.196300959237682,0.198770616162194,15.4524290679726,0.918154664734573,0.746685171777176,0.176441645285706,0.240292668359319,0.131205154498189,0.459844415039223,0.159476503363444,0.0364016573527738,NaN,NaN,NaN,NaN,1.97177383483815,-114.893051128023,2.09638162713757,stable,stable,1,0.536446048363443,0.219547591252233,0.215843967000748,0.898698292927412,0.341686598000805
201,1.81540684603356,2.49527525901794,-0.770662519889097,-1.63264129024519,1.81540684603356,-0.0472518854864754,-0.00838061740274887,0.0479893262098797,-0.0332421674230181,-0.140348227137142,0.145260155573865,0.00936795617029944,0.118492424345396,0.120932473310269,15.4615530760726,0.846172950634571,0.679795166886012,0.176172144812977,0.240204047853196,0.142045278662252,0.454580562390803,0.156639992971266,0.0410378828643435,NaN,NaN,NaN,NaN,1.87135485490829,-114.338554000358,1.95517329829954,stable,stable,1,0.50829498693767,0.161768436059964,0.181601702786,0.899924178098707,0.336868765038999
202,2.31417909224828,3,-0.93894265863314,-2.08088232277474,2.31417909224828,0.00698676036227752,0.00630990337749055,0.00941433486727337,-0.0552773033781088,-0.233218377186011,0.24350387382464,0.0157198219783132,0.232990094973623,0.234765173034562,15.3622692473733,1.80873061470501,1.86220050557597,0.024630578640808,0.0770662124555265,0.12197782145713,0.487949028900857,0.000847745385445851,0.00525523653449443,NaN,NaN,NaN,NaN,2.45321237213052,-112.912057666969,2.04376441830989,stable,stable,1,0.664067459206454,0.15603566563647,0.0959091702121995,0.958841680448817,0.345787634907942
