scenario_id,mean_wind_speed,max_wind_speed,wind_velocity_x,wind_velocity_y,wind_velocity,wind_acceleration_x,wind_acceleration_y,wind_acceleration,wind_body_force_x,wind_body_force_y,wind_body_force,mean_wind_body_risk,mean_wind_gust_risk,mean_wind_risk_raw,min_thrust_margin_n,mean_abs_roll_deg,mean_abs_pitch_deg,mean_abs_vz,max_abs_vz,mean_tag_error,max_tag_error,stability_std_z,stability_std_vz,mean_imu_ang_vel,max_imu_ang_vel,mean_imu_lin_acc,max_imu_lin_acc,wind_speed_cmd,wind_dir_cmd,hover_height_cmd,gt_safe_to_land,label,success,onto_wind_condition,onto_gust,onto_temporal_pattern,onto_drone_state,onto_tag_observation
1,2.02169429769321,2.74023628234863,-1.24476073205768,-1.57541703145129,2.02169429769321,-0.0530686224062312,0.0158215069271295,0.0553768793409339,-0.0837563932897687,-0.130627136579121,0.158892712050089,0.0102495878726221,0.124302377032675,0.126932541957709,15.4421326804874,0.917195899464284,1.05930685548229,0.176879215702948,0.240269930517503,0.137854546861719,0.419514017394659,0.159523294500398,0.0365233263789164,NaN,NaN,NaN,NaN,2.0716688985117,-127.374480982322,2.31472368639318,stable,stable,1,0.564504987776399,0.171824374426641,0.187275076248494,0.896030727645375,0.338731312505903
2,2.30041662891706,3,-1.38869436598656,-1.79561712993341,2.30041662891706,0.0101533455874536,0.0058336772075892,0.0117099195719104,-0.109520600722959,-0.174645919004621,0.215380748169982,0.0139115430322907,0.229317613994121,0.231029941684461,15.3977066978383,2.11790628270247,2.18780591042995,0.0198307867219054,0.111229723040747,0.145818154590676,0.484301013145355,0.000190956724560321,0.00476415745608351,NaN,NaN,NaN,NaN,2.42882567996652,-126.095851442396,2.29562827713516,stable,stable,1,0.659650422714774,0.159553077081845,0.0975491367975887,0.956254010835864,0.335191931293033
3,1.76689973291086,2.74068570137024,-1.08983766169896,-1.35885968249528,1.76689973291086,-0.0658706981678773,0.0256223963502047,0.0706785403913421,-0.0693722640862895,-0.1032626524755,0.130692968383808,0.00843250524946394,0.196126687627815,0.198278988649031,15.3766090143052,1.05944732468333,1.23162375086148,0.17679109568626,0.240252379777158,0.159877663846083,0.503909278480337,0.159431788206068,0.0359530036312251,NaN,NaN,NaN,NaN,1.87319628751653,-127.297520073929,1.91522303990107,stable,stable,1,0.510829059839368,0.23205957530844,0.223168137223358,0.893603179420447,0.328943260512852
4,2.42977076975426,3,-0.717153928867737,-2.28504077100082,2.42977076975426,-0.0322070224065333,-0.0144212490164623,0.0352883084815602,-0.0316501892824603,-0.271593856649239,0.27514743981414,0.0177586677669925,0.23242931594412,0.234028270212663,15.4361588940101,1.59219179910017,1.39376132601483,0.0632011764905392,0.240168408037623,0.120895531382241,0.463155027248796,0.00189012470453762,0.00836879521305064,NaN,NaN,NaN,NaN,2.46779887999601,-105.553838771394,1.5450930689097,unstable,unstable,0,0.694744525977002,0.134771100026911,0.0847459136996768,0.94493835148597,0.346268652719004
5,1.83472369713326,2.63248252868652,-1.06284645664045,-1.47984810199672,1.83472369713326,-0.0422256345999355,0.00840202483915045,0.0430534346918451,-0.0612721867230463,-0.116007784008892,0.133980422177675,0.00864349513622894,0.143446797999377,0.145607503938589,15.4019419537455,1.02053422608565,1.13840739100169,0.177677252595488,0.240218794659746,0.169897431693865,0.478323477191268,0.159509827538644,0.0376724461901952,NaN,NaN,NaN,NaN,1.88084050141636,-125.058018224367,2.17667809701906,stable,stable,1,0.518381153356587,0.187388866792989,0.197025648101524,0.89419826099657,0.324490030358282
6,1.87790918469429,2.72520542144775,-1.03374936282622,-1.55372139521912,1.87790918469429,0.00393986871871172,0.00383063417847278,0.00549511817252068,-0.0581813232868321,-0.126828704717852,0.141852025435699,0.00915861619481566,0.129244961583634,0.13034192725549,15.3981153624114,1.78571851412844,2.01877917905533,0.0147417078884768,0.0495252079680002,0.130524873518934,0.453014998093351,0.000203395919619343,0.00576593634039979,NaN,NaN,NaN,NaN,1.9161886291726,-122.783489357006,2.4704703286437,stable,stable,1,0.526844168036242,0.191649091601158,0.117176557270974,0.962736664180746,0.341988945102696
7,1.92492676506171,2.53116941452026,-1.09391098486741,-1.5673479016759,1.92492676506171,-0.0470332284672557,-0.00815399917572004,0.0477348120621702,-0.0659364245024017,-0.129573950530069,0.148374381894837,0.00956973152792951,0.123032441677339,0.125351628634189,15.4346679945306,0.862487096481668,0.919759167831933,0.176111657781572,0.240236051178687,0.138629343553892,0.451803044107543,0.156935631823863,0.0408943854697266,NaN,NaN,NaN,NaN,1.96867067391655,-123.586570068552,1.93724788149188,stable,stable,1,0.538384129743295,0.145155978339572,0.171713442328593,0.897940807603893,0.338386958420493
8,1.9087304084893,2.72080230712891,-1.10894628567412,-1.53809199182882,1.9087304084893,-0.0517540509183925,0.00135942940254415,0.0517719019813264,-0.0668474509551133,-0.126162244245194,0.145612954922519,0.00939398858544691,0.127831201464328,0.130163644965836,15.3984342606952,1.08061389640462,1.0628594269443,0.175815894523143,0.240250249420863,0.187364055602187,0.483195946452545,0.156800843204397,0.0393591818688035,NaN,NaN,NaN,NaN,1.96461919299708,-125.030810267647,2.05045970539456,stable,stable,1,0.535027504590315,0.192207692557154,0.199326308951165,0.895250476626401,0.316727086399028
9,2.62232555753013,3,-0.830884366191295,-2.45148411839244,2.62232555753013,0.00836316359250387,0.00424010820412724,0.00937662107892227,-0.045431985455776,-0.313596401584723,0.319258826325353,0.0206192941554209,0.19784755223832,0.200262577561535,15.3360530767144,2.02467244563692,1.86485607255019,0.0261917166872731,0.0543302860628199,0.142866450239532,0.428161372744225,0.00762988552723651,0.00787486093867796,NaN,NaN,NaN,NaN,2.98365709536118,-106.900241715489,2.0260689354534,stable,stable,1,0.739339330853674,0.0866957967535242,0.0582721240823247,0.956343560442036,0.336503799893542
10,1.88142247589267,2.59497857093811,-1.13899012349904,-1.48176524310789,1.88142247589267,-0.0441156710245757,0.00734278390520059,0.044722577133111,-0.0700469823811662,-0.116221228305492,0.13873713753573,0.00895225497321815,0.130322941546528,0.132551665129736,15.3587105785276,1.19028120569002,1.24238298449097,0.177368112964574,0.24024466967452,0.170353693517745,0.477837570778951,0.159558080844526,0.036330968868133,NaN,NaN,NaN,NaN,1.92399487038037,-126.353098118705,2.1783669295956,stable,stable,1,0.528222993263993,0.168749260526294,0.185375520319938,0.892202153452005,0.324287247325447
11,1.88589270341964,2.56587886810303,-1.17198386070347,-1.46097247585296,1.88589270341964,-0.0433316099593743,0.0209650841200999,0.0481369211087935,-0.0744833362685007,-0.112938658490499,0.13861338036484,0.00894342640836814,0.127892918309376,0.130278959881862,15.3503573660092,1.04359156608408,1.15282194054293,0.177421447717606,0.240244853881967,0.164830397491329,0.527427320699546,0.15934268641959,0.0356882426406124,NaN,NaN,NaN,NaN,1.90759543141243,-127.844704273722,2.38935858832384,stable,stable,1,0.528960512888277,0.161821989257041,0.180889708074669,0.894031741446271,0.326742045559409
12,2.62494947989782,3,-0.785274409085421,-2.47131876665946,2.62494947989782,0.00621576097291183,0.00291145025489057,0.00686383471967938,-0.0410765905295841,-0.31815670363028,0.322772583405684,0.0208368276326023,0.19628152658993,0.198768453818824,15.3947119497196,1.95750710445184,1.47626154136986,0.0234952257202416,0.0578023052644317,0.118968599264009,0.434031762555701,0.000441250464682033,0.00581397851036722,NaN,NaN,NaN,NaN,3,-106.299635778902,2.12789835189986,stable,stable,1,0.739740218736516,0.0856447367215991,0.0536971273543658,0.96127277635128,0.347125066993774
13,1.97369898338707,2.77582573890686,-1.03973965925717,-1.66410148429666,1.97369898338707,-0.0520441780723047,-0.00203751265830055,0.0520840467807033,-0.058975491775246,-0.145834703508118,0.159508323081906,0.0102893190507388,0.118929388728603,0.121429864795164,15.3967270148836,1.10081959106469,0.93467782676462,0.176960192591033,0.240250513828773,0.147378433342506,0.45991029268894,0.159419072504752,0.0376407945991277,NaN,NaN,NaN,NaN,2.02726066309477,-121.319262228342,2.04383929892937,stable,stable,1,0.550605701862252,0.190027261901748,0.198556839926682,0.895526709707253,0.334498474069997
14,2.671390906989,3,-0.731135013535251,-2.53679702915173,2.671390906989,-0.0242067758955194,-0.00885290350835796,0.0257748307421057,-0.0347161170890387,-0.330042706775698,0.333478629293068,0.021522768011975,0.197953485539125,0.199959706917958,15.3919583095558,1.50861136936684,1.51618385942268,0.0626457583761979,0.240240318160646,0.117095594115303,0.492404695734377,0.00186266575804212,0.007525631857571,NaN,NaN,NaN,NaN,2.96211416560549,-104.652706865072,1.91915318117123,unstable,unstable,0,0.75236284991399,0.0786624315635287,0.050761903788889,0.944910872585698,0.347957513726532
15,1.70897222700573,2.37048745155334,-0.913708170755962,-1.42546115709832,1.70897222700573,-0.0586903088322926,-0.000246429201695287,0.0586908261841775,-0.0465180322875685,-0.10799995714827,0.120253871602655,0.00775616126963913,0.130156411901455,0.132053205503129,15.460450432982,0.792667334908189,0.957897179067246,0.177254033784463,0.240206262769693,0.162161188213044,0.423236706034372,0.159525855075408,0.0386773747871629,NaN,NaN,NaN,NaN,1.78867162897179,-121.8764556945,2.43971225162336,stable,stable,1,0.482136568302154,0.159600910323646,0.180725426150307,0.897618547640819,0.327928360794203
16,1.77069392402967,2.47436690330505,-1.00548986815716,-1.44370807763882,1.77069392402967,0.00499372468643665,0.0036385698345978,0.00617871157161199,-0.054910382028832,-0.109739116988166,0.12498646549617,0.00806574419719165,0.124014837660056,0.125016576913367,15.439948414249,1.52144415921507,1.58248739109007,0.0275550531261062,0.0505275672299733,0.0976128476677218,0.450426680251778,0.00222654621565321,0.0080489273171856,NaN,NaN,NaN,NaN,1.79698325918466,-123.928221238646,1.96237053984608,stable,stable,1,0.497188361790585,0.159459184125091,0.099591969231695,0.961834439827407,0.356616512147679
17,1.85751443249839,2.55347299575806,-1.01967749923655,-1.53725007935272,1.85751443249839,-0.03945625770766,0.00540944028793427,0.0398253476635422,-0.0569695283966447,-0.125806893356615,0.140582872957989,0.00906707891876348,0.136778758501631,0.139059249223792,15.4616066528674,0.729762048880361,0.972190047273942,0.176192906628557,0.240244308195295,0.151114926029635,0.398223066882399,0.159366414862483,0.0355063230698023,NaN,NaN,NaN,NaN,1.90606506718967,-122.683382350962,2.29544734964478,stable,stable,1,0.523149031844328,0.163891990471742,0.182076102206905,0.898531065930223,0.332837810653496
18,1.82919171310606,2.49241948127747,-1.04500129536117,-1.48907693253795,1.82919171310606,-0.0449071362850862,0.000672231647521943,0.0449121674461969,-0.0592534679992574,-0.116913506749005,0.133179055535978,0.00859139777769875,0.114638902499397,0.116829083835992,15.4039242310537,0.98277822491335,1.05251717094171,0.176460602762313,0.241197835159477,0.17325289767337,0.409751552539925,0.156749315071841,0.040289015600251,NaN,NaN,NaN,NaN,1.87952489310621,-124.36494621675,1.75943248282064,stable,stable,1,0.511150273595482,0.157460145203701,0.178793000503736,0.895778091937125,0.322998712145169
19,2.61834072113037,3,-0.782955126609615,-2.46325951241835,2.61834072113037,0.00625940245439614,0.00233405588431208,0.00668041435520225,-0.0413704530845558,-0.31604532627443,0.32085723045804,0.0207079482818007,0.202426440111123,0.204956538698415,15.4290863536855,1.73426395329366,1.37361182190249,0.0303044861209658,0.0582200663664825,0.106607413945906,0.479564363528268,0.00947410426773495,0.00793088583523173,NaN,NaN,NaN,NaN,3,-106.031594526481,1.83593145855718,stable,stable,1,0.739215500041115,0.0870980803774535,0.0593535197198931,0.960428732991547,0.352618927135153
20,1.88217323166983,2.58516955375671,-1.01583924221172,-1.56514930463353,1.88217323166983,-0.0557447576811798,0.00807564972088371,0.0563266733204426,-0.0576179755084612,-0.13051953802562,0.145841587479576,0.00940721430749421,0.144710590764189,0.147065671847636,15.3978745466784,0.96033632502679,0.954936272067643,0.17798248633903,0.240281743247972,0.174815961373509,0.487408969147508,0.159400103666163,0.0360285600129441,NaN,NaN,NaN,NaN,1.95533603544456,-121.682915799118,2.32901011290509,stable,stable,1,0.53132599614815,0.168500729244962,0.185046222615433,0.895960186424743,0.322304017167329
21,1.94212119838818,2.76078104972839,-1.06589667060491,-1.60671949506141,1.94212119838818,-0.0341153646588338,0.0193085893853771,0.0392005067551212,-0.0620507620970306,-0.137024085687771,0.153325872804377,0.0098916882580027,0.141752825476628,0.144320477125484,15.4238206232944,1.04548432773971,1.10850478793542,0.17731551783348,0.240259889789306,0.181316005421413,0.528371026310993,0.159526927267148,0.0375802910024824,NaN,NaN,NaN,NaN,2.01006102178809,-122.843348050567,2.19123700442301,stable,stable,1,0.546763081661946,0.191385226123319,0.199397552601707,0.89441804088867,0.319415108701594
22,2.63128353198369,3,-0.742272993867874,-2.4911752559226,2.63128353198369,0.00722685203942652,0.00340730084497352,0.00798981160278017,-0.0376358968500613,-0.32315742474131,0.327111892493395,0.0211186017165041,0.197876445706961,0.20041473015516,15.4347071625008,1.82379415282378,1.83124181330718,0.0149894679005211,0.0550858665707719,0.126108921481795,0.469004217019399,0.000215479991960022,0.00690521108285389,NaN,NaN,NaN,NaN,3,-105.373889448931,2.47175578173591,stable,stable,1,0.741758554560017,0.084426004097512,0.0532623571921333,0.963787126315853,0.343951590452536
23,1.69625233874029,2.4935986995697,-0.834975496723188,-1.44593208322301,1.69625233874029,-0.0660478798417352,0.00554315112371153,0.0662800796315801,-0.0420222771803344,-0.115072162243785,0.126349626698971,0.00814952841189498,0.17536803925891,0.177227931688905,15.4232660362174,0.937326791100721,0.893051266336631,0.177029323444142,0.240249336924412,0.148964929180089,0.431515784103135,0.159435613047501,0.0360843743434816,NaN,NaN,NaN,NaN,1.75191981509009,-118.497538474994,1.73075675312546,stable,stable,1,0.487779543335192,0.191554279119074,0.198914430607357,0.897103796398064,0.333793364808849
24,2.67355190916788,3,-0.618345156795937,-2.5641123046983,2.67355190916788,-0.0280652962291071,-0.00875965818744144,0.0294005521034613,-0.0273860922006735,-0.336840857414497,0.339153379724064,0.021889354233004,0.208014536260418,0.210124257968191,15.4014397302148,1.60502076983117,1.28410251875967,0.0630713132814059,0.240419382360917,0.120328957141954,0.445951522070032,0.00183994011938469,0.00859417809605553,NaN,NaN,NaN,NaN,3,-102.185830974197,1.73866184522381,unstable,unstable,0,0.754972027371739,0.0788409216561954,0.0512474598291812,0.94576408894894,0.346520463492465
25,1.71654984091415,2.63150978088379,-0.93299155046664,-1.41362330356424,1.71654984091415,-0.0728886561621476,0.00433277804377027,0.0730173209772884,-0.0512058776353036,-0.110339563364314,0.125908220994163,0.00812269583429167,0.176159295376365,0.17805372935196,15.367955466699,1.08543247711789,1.0905184344151,0.17727368282837,0.240221670007066,0.162199902602444,0.499932579397545,0.159403899917979,0.0351474005068281,NaN,NaN,NaN,NaN,1.79680657025774,-122.144595008979,2.37944675059272,stable,stable,1,0.493357370114165,0.219252495339005,0.215178547856301,0.89426640142377,0.327911154398914
26,1.84791512568792,2.59524202346802,-1.03499785261602,-1.51677088654885,1.84791512568792,0.00531992724587056,0.000599972721928096,0.00535365232046439,-0.0584717523333185,-0.120945828236401,0.136721903445638,0.00882489336034609,0.128209369319079,0.129270501677128,15.4274965203425,1.61334953294139,1.66643999854678,0.0342334157549643,0.0615873402163682,0.113948127444061,0.455688284834023,0.0246750958748493,0.00574295653370403,NaN,NaN,NaN,NaN,1.89015622586425,-123.159855511628,1.51984914120949,stable,stable,1,0.518631467185537,0.169130054925941,0.114533090063713,0.957113517232254,0.34935638780264
27,1.71959838494152,2.35565328598022,-0.820311990916339,-1.49759499614829,1.71959838494152,-0.056125113090669,-0.00625923745792405,0.0564730588244967,-0.0376586351285389,-0.118058322620537,0.125441704241523,0.00809320928430318,0.11867444169412,0.120801220557738,15.3957322620841,1.04549834220574,1.03111135833401,0.176803295445556,0.240205205111465,0.164820301116598,0.475010541539371,0.159137530307126,0.0380109240710908,NaN,NaN,NaN,NaN,1.77620387229689,-117.832865156267,2.10748144789325,stable,stable,1,0.482719813429285,0.153465746851534,0.176629393566201,0.895282133201553,0.326746532837068
28,1.73035121045145,2.4675464630127,-0.979555275920399,-1.41220162382551,1.73035121045145,-0.0372680271101494,0.0150081054546111,0.040176474136235,-0.0522953446024945,-0.105916014859802,0.120432114187453,0.0077689561039431,0.12550227120943,0.127565154086744,15.3826235049617,0.973099860191245,0.993748396128731,0.176870047151854,0.240208993578626,0.148216217026716,0.497768244411185,0.15938476457396,0.0368919470035672,NaN,NaN,NaN,NaN,1.77693740749085,-123.63065316624,2.00525390748666,stable,stable,1,0.486940020271069,0.173234618751257,0.188193697850579,0.896111168695845,0.334126125765904
29,2.62818495074908,3,-0.523842639577074,-2.54239633073623,2.62818495074908,0.00280131975221537,0.00425442955219553,0.00509387506410853,-0.0233681991995986,-0.33597444294756,0.337616238303951,0.0217848700019935,0.201515944847502,0.204157876660136,15.441521004214,1.44775404300398,1.21578949673393,0.032783914034251,0.0509472653448262,0.105207734712734,0.420846344101516,0.0241013890652846,0.00477336073833063,NaN,NaN,NaN,NaN,3,-100.208461528465,1.52750868805592,stable,stable,1,0.741680895531782,0.0845922631765437,0.0632028539205972,0.962680200884934,0.35324100679434
30,1.86513711076204,2.62713932991028,-0.943664057152016,-1.59429131993484,1.86513711076204,-0.0326800670346108,0.00575771229526455,0.0331833999503019,-0.0489959383525177,-0.134552335060303,0.145209377872651,0.00936574858002192,0.123147889882678,0.12548933145111,15.4665823912531,0.909814232733219,0.874803131386292,0.176087257777605,0.240231038851544,0.167085824884801,0.397640650334889,0.159495040897242,0.0341614371067788,NaN,NaN,NaN,NaN,1.90894849737311,-119.745808657761,1.52706801858362,stable,stable,1,0.522467762493434,0.177534122632575,0.189829499188865,0.897934377535973,0.325739633384533
31,1.89863406071047,2.81320476531982,-0.940455262484851,-1.62747143371358,1.89863406071047,-0.0518162497427671,0.00806701199095267,0.0524404464117821,-0.0502862289769738,-0.141511988086963,0.153222070654185,0.00988569989798078,0.152307540386724,0.154670748514266,15.3788301414092,1.14938347987044,1.16882084071899,0.176286521492262,0.240260037604332,0.162997354917209,0.482900267409134,0.156621083705687,0.0408692080002903,NaN,NaN,NaN,NaN,1.95935225919259,-119.13516242978,1.71644037491242,stable,stable,1,0.537236565892311,0.215392490379266,0.213706394945344,0.893642276734952,0.327556731147907
32,2.62013694167137,3,-0.646385744232732,-2.50630628025735,2.62013694167137,0.00567645776065019,0.00817185274464212,0.00994994221031262,-0.0308666866305469,-0.326676163784738,0.329421173043028,0.0212629728987932,0.194586051094397,0.197174192339349,15.4172274074109,1.68831972609748,1.61933402080774,0.0185776827609421,0.057938917148902,0.116128216056861,0.442284615190901,0.00025507562424869,0.00548621659836424,NaN,NaN,NaN,NaN,3,-103.01941117063,2.30167817419637,stable,stable,1,0.738138022913569,0.0872933441958321,0.0544843613155604,0.964722450608131,0.348387459530284
33,1.88797590846107,2.80877208709717,-0.813058287005792,-1.68368233426899,1.88797590846107,-0.0569262253318786,0.00761901086395837,0.0574338267668186,-0.0381581741391344,-0.15093706075642,0.157800362199109,0.0101769484850069,0.143457716596584,0.145648829100301,15.465536821779,0.944255127554207,0.771976103530697,0.176202781923971,0.240253680154887,0.151386178360124,0.397049071874405,0.159130957899742,0.0327843966074286,NaN,NaN,NaN,NaN,1.93692079365451,-115.089103932968,2.45325685573231,stable,stable,1,0.532590008076346,0.217708675100372,0.213271674004224,0.89841393507949,0.332717254062167
34,2.60722526767344,3,-0.557678943241611,-2.51331977854021,2.60722526767344,-0.0187457116218433,0.0117014453799268,0.0220980887904072,-0.0258114775059868,-0.33780584652618,0.339798997675123,0.0219375143373364,0.20639257333273,0.208327798041754,15.3572068124252,1.74902577510071,1.5013170891809,0.0625059213691053,0.240433906299112,0.149336480871733,0.458130419519644,0.00191804127616752,0.0104217949983078,NaN,NaN,NaN,NaN,3,-101.157933097739,2.17718786117971,unstable,unstable,0,0.736925630987934,0.0924256310517176,0.0600975850561867,0.943208631096092,0.333628230723674
35,1.80056410906266,2.74398183822632,-0.807018101496664,-1.58277509393882,1.80056410906266,-0.0655417522046433,0.00145799286585022,0.0655579669090778,-0.0398442050523005,-0.137078235274148,0.145724471530453,0.00940015301953809,0.179249906867335,0.181565135622528,15.4381664903714,0.966692646541257,0.973478235478123,0.176914242947344,0.240296745176348,0.166466487910903,0.468262937576463,0.158748906145385,0.0355822164646136,NaN,NaN,NaN,NaN,1.86137587595629,-115.841095627455,2.23005036956964,stable,stable,1,0.516463456207882,0.22428794966182,0.218066827000355,0.896298678739033,0.326014894261821
36,1.94390677134196,2.81467056274414,-0.873816031204951,-1.71526332729875,1.94390677134196,0.00303870186063771,0.000514976968929054,0.00308203021989896,-0.0442369209795289,-0.155960068117174,0.164545505363347,0.0106231784882968,0.164890619853534,0.166170300013264,15.4022580155165,1.83223626581392,1.75298350777785,0.0302502988779069,0.0741030547078317,0.116540937409238,0.502064504449125,0.00851610071863203,0.00610988112453152,NaN,NaN,NaN,NaN,2.00134863438598,-116.022448666907,1.84295518913203,stable,stable,1,0.551609199027176,0.196486891939139,0.123898843770584,0.956705266625683,0.348204027818116
37,1.81137897287096,2.61987972259521,-0.821974727601632,-1.59336552367197,1.81137897287096,-0.0467186698483436,0.0118604928431262,0.0482006784483411,-0.0390519925327022,-0.134504903236802,0.142339486908576,0.0091819774132821,0.13564263606174,0.137916499888385,15.4226456284405,0.959129559467359,0.9739661428773,0.176944250098809,0.240254642706406,0.162842750305736,0.441672491243559,0.15868896494618,0.0349133162403797,NaN,NaN,NaN,NaN,1.84847057739295,-116.145839673518,1.58525844698988,stable,stable,1,0.510617692743267,0.190749459736819,0.197673856067199,0.896339265860745,0.327625444308562
38,1.95374566032773,2.75676512718201,-0.762588602179079,-1.78480597626241,1.95374566032773,-0.0408506309216774,0.00466500919237054,0.0411161325693944,-0.033078264920144,-0.16800274469521,0.172382283783618,0.0111173983250517,0.129494828456368,0.132244264390096,15.4600345438753,0.899334440658473,0.727645554235627,0.176745101671104,0.240244766626668,0.133067701963467,0.44308726298749,0.160237966642172,0.0352498115891531,NaN,NaN,NaN,NaN,1.9993932608471,-112.620106358339,2.3547154923449,stable,stable,1,0.54744769563208,0.188217337679935,0.196965389976295,0.898844034918851,0.340858799127348
39,2.62807780106862,3,-0.632258215907555,-2.51282050072076,2.62807780106862,0.0061346585578633,0.00300059980877363,0.00682917526748127,-0.0311866657112319,-0.328289717314377,0.331167301857281,0.0213754432395419,0.201952592786108,0.204509345993706,15.42542902683,1.73623361000172,1.6132517577529,0.0256851566123277,0.0615118860488169,0.111101389052873,0.479156220973741,0.000723335711012858,0.00438933156344946,NaN,NaN,NaN,NaN,2.9987372183553,-102.731971335258,2.02999808720516,stable,stable,1,0.741722616150374,0.0849345102252646,0.0528783092419138,0.960840036661478,0.35062160486539
40,1.9139229172752,2.66325235366821,-0.287581083738466,-1.88037767888317,1.9139229172752,-0.0422728940218626,-0.0209869583712365,0.0471958683642926,-0.00695180534695188,-0.186729400248443,0.186982160984408,0.0120589099610605,0.142138183896909,0.145546582810726,15.4647374759789,0.915174542166968,0.49179883508319,0.176495785613225,0.240234453589529,0.125897024533809,0.387474113520008,0.159409988938464,0.0365562516978762,NaN,NaN,NaN,NaN,1.96262077332345,-97.9255988407311,1.55618123683509,stable,stable,1,0.539488761168865,0.177251699055214,0.190493085841371,0.900697316372136,0.344045766873863
41,1.89462697749235,2.66510105133057,-0.263296524805361,-1.86348739226177,1.89462697749235,-0.0423687976133755,-0.015880763351381,0.045247250257068,-0.00635663410792385,-0.182903836977967,0.183142544650999,0.0118113538681668,0.127219526818229,0.130344759192092,15.4637283233808,0.938615462137112,0.605766098824661,0.176861778712515,0.240252348174906,0.133009685024623,0.391518477918363,0.159721452837575,0.035764899889875,NaN,NaN,NaN,NaN,1.94919332297993,-97.076725643542,1.99019947586162,stable,stable,1,0.531302812503046,0.181651995827394,0.192983928010465,0.899434684093329,0.340884584433501
42,2.61907184680303,3,-0.635796641267799,-2.50839380599632,2.61907184680303,0.00686338890869392,0.00216657808978889,0.00719723335255541,-0.0300158549513044,-0.327132237974287,0.329759562491257,0.0212993214681786,0.19476667440896,0.197325951788456,15.4010815026085,2.2541077526446,1.99587178149894,0.0206970986944417,0.0516657987067147,0.140388611111042,0.403099862248043,0.000241279687646812,0.0085707306019823,NaN,NaN,NaN,NaN,2.97766096785849,-102.83550377438,2.25208857200881,stable,stable,1,0.737884349505166,0.0870283272506202,0.0554408610769158,0.95625875431308,0.337605061728426
43,1.80798351683584,2.70533680915833,-0.242428715506166,-1.7665867811201,1.80798351683584,-0.0635780265732125,-0.0293562480676191,0.0700282426136177,-0.00775276334600998,-0.17040822737232,0.170836213150666,0.0110174705135605,0.184100987349841,0.186892613533701,15.469038531132,0.936851068124893,0.608058221905106,0.176214982701797,0.240265284055979,0.144357848720488,0.37117934699165,0.159594411761713,0.0358423830448732,NaN,NaN,NaN,NaN,1.87761184680711,-96.9149867627548,2.15463826535748,stable,stable,1,0.519507460529631,0.214743001918389,0.212810244657405,0.899753935656009,0.335840956124228
44,2.56423669966256,3,-0.609854149262565,-2.45813275735193,2.56423669966256,-0.0222924041572988,-0.0145633074957227,0.0266278277057541,-0.0273922737962847,-0.309174485433742,0.31165928779614,0.0201145225775277,0.220502902010262,0.222385454609374,15.4085843803312,1.63699396265936,1.24718902522285,0.0625621761972444,0.240236583110497,0.112588154476877,0.44788618184027,0.00188091877799445,0.00868816299110577,NaN,NaN,NaN,NaN,2.70268226585959,-102.84402520654,1.88002603260121,unstable,unstable,0,0.728273544165223,0.102928510988646,0.0657524024912843,0.946057474139446,0.349960820232499
45,1.678090946204,2.37372541427612,-0.231070008583089,-1.64370730640256,1.678090946204,-0.0589887185464649,-0.0265464882777004,0.0646868221172763,-0.00596028706118367,-0.14454739348809,0.144837244446461,0.0093465639465481,0.136780366709343,0.13911221173545,15.3362830715218,1.24568049299289,1.00122202117892,0.177497114430858,0.240204802133805,0.155311906298631,0.464577988900021,0.159469890424334,0.035935779837967,NaN,NaN,NaN,NaN,1.74484723470437,-96.8322370152764,2.20684736812285,stable,stable,1,0.475313361334822,0.168377006037729,0.184969266782612,0.89359720874465,0.330972486089497
46,1.65412584443887,2.48221015930176,-0.219133881026491,-1.6229385739436,1.65412584443887,0.000842557890672578,0.00266206055944044,0.00279221600548076,-0.00531018067352932,-0.139381717300323,0.139618643604021,0.009009958425884,0.136806623016346,0.137940759044185,15.4469937203384,1.57155697624142,1.43031597977206,0.0327894429038055,0.0509303203809689,0.111588694150451,0.396225294994916,0.0241577972871123,0.00521259586479828,NaN,NaN,NaN,NaN,1.71876069037497,-96.5690723186371,1.58694869881347,stable,stable,1,0.468688376992536,0.186830877111821,0.124730814466746,0.960019133893706,0.350405024822022
47,1.77279997358517,2.41637492179871,-0.146980038192233,-1.74838599452854,1.77279997358517,-0.0513941402461034,-0.00349364878325993,0.0515127482615413,-0.00381797942431653,-0.161550664547452,0.161707555963777,0.0104295632775006,0.142821630230161,0.145530150126342,15.4364609997641,0.901672718680953,0.616361323738299,0.177410437080108,0.240220578874136,0.10892274317228,0.346388824685033,0.159653689590602,0.036045626556316,NaN,NaN,NaN,NaN,1.8330973949862,-93.5355183886098,1.77895860233859,stable,stable,1,0.50185268964798,0.154248367195995,0.176613716257131,0.899367371126652,0.351589891923431
48,1.71699718269361,2.43128705024719,-0.201421272065312,-1.68943144639379,1.71699718269361,-0.0448530449768823,-0.00447764453805987,0.0450759907745514,-0.00479414520385918,-0.151523825930258,0.151708996988368,0.00978867948935092,0.135941921513883,0.138555837448671,15.3575771759773,1.11926781093953,0.923899842912861,0.177577666906981,0.240213008045137,0.140418088063239,0.44315080411245,0.159382375005098,0.0375121535047943,NaN,NaN,NaN,NaN,1.76093856199151,-95.8152911333806,1.94663253713308,stable,stable,1,0.485577082874697,0.168979151841557,0.185864885310963,0.895157706409098,0.337591960860782
49,2.61890718340874,3,-0.668121534227466,-2.49657848266938,2.61890718340874,0.00465879834460424,0.00290539198864774,0.00549051041556117,-0.0329877304221294,-0.324496190711029,0.327648985107525,0.0211456656801395,0.197600667608376,0.200160190728283,15.4490220141666,1.63146094044719,1.48447899774923,0.0316074485177539,0.051613531166514,0.108089262454181,0.37868481783744,0.0149418980158967,0.00648878316776159,NaN,NaN,NaN,NaN,3,-103.690253195533,1.71485245826077,stable,stable,1,0.738407287054653,0.0867524773092204,0.0610518874637026,0.959713890512437,0.351960327798142
50,1.63074400960183,2.58085751533508,-0.169576994481053,-1.60035497213756,1.63074400960183,-0.0641067185235993,-0.0157433964372677,0.0660115587699984,-0.00454416917619152,-0.139153845310369,0.139386555808981,0.00899207037968923,0.154350719542663,0.156687044431791,15.4149899849839,1.06942162443338,0.840149280630125,0.177145591223003,0.24021096654434,0.166896575052358,0.440637037766677,0.15952276150793,0.0369676025259254,NaN,NaN,NaN,NaN,1.72627812567413,-94.411640590645,2.36310411689094,stable,stable,1,0.466202478113512,0.225877657897816,0.219868364408207,0.896423432991571,0.325823744421174
51,1.60851639306464,2.2764720916748,-0.127604602084943,-1.59262308207082,1.60851639306464,-0.0347358064675125,-0.00189481858410616,0.0347874487195476,-0.00227524494219797,-0.133000150449019,0.13306189968909,0.00858217488052061,0.0984828209040917,0.100653615273929,15.4605592232578,0.949604045517842,0.630341259258056,0.176570770308094,0.240180825482344,0.143080858600253,0.375712938743658,0.159491948960722,0.0371343485501533,NaN,NaN,NaN,NaN,1.64198518080473,-93.7945426045898,1.63728565820798,stable,stable,1,0.449068427872023,0.156667731119204,0.178389348793515,0.899300758879857,0.336408507288777
52,2.61299359877904,3,-0.624901659600313,-2.50553607611392,2.61299359877904,0.00451901372174555,0.00315355580995157,0.00551057159138722,-0.0292438084708579,-0.326813043832898,0.329340844202616,0.021261566359967,0.197964740718309,0.200540856405651,15.3447015127853,1.8239735960983,1.62886253483329,0.0226970532316738,0.0688958266332956,0.111454428113494,0.441194852261636,0.000321376125830489,0.00653699185949687,NaN,NaN,NaN,NaN,3,-102.899260755177,2.1292789488069,stable,stable,1,0.736906464288875,0.0880867117331364,0.0553719488224922,0.961522046641129,0.350464698616225
53,1.73290353972896,2.33661890029907,-0.137173318626469,-1.71627933842526,1.73290353972896,-0.0436571117036924,-0.0129386798749412,0.0455340843678105,-0.00273903312822634,-0.155297428054126,0.155367472357142,0.0100210232948885,0.115002857030377,0.11764641242158,15.4302039283684,0.899464390627211,0.653198776900436,0.177227284886809,0.240214209328889,0.125701372285953,0.381151027761841,0.158797390410383,0.0368235017805821,NaN,NaN,NaN,NaN,1.76767167051157,-93.7767495596924,1.95000466634126,stable,stable,1,0.485636893078704,0.144183871595708,0.170477305201443,0.899186861240307,0.344132723428465
54,2.677221729544,3,-0.557279621824807,-2.58266441486411,2.677221729544,-0.0220842440655863,-0.0104605850358199,0.0244364006195675,-0.0244815285434455,-0.340593016730736,0.342481988225553,0.0220983238447049,0.202051218808584,0.204172079619638,15.4043933272691,1.46716338289817,1.10601893750753,0.0631740152397228,0.240282011082793,0.10285274750814,0.472739693005292,0.00188127882287883,0.00769445071330964,NaN,NaN,NaN,NaN,3,-101.106544404973,1.72461116051664,unstable,unstable,0,0.754760210468993,0.0771051176328549,0.0498971765785596,0.948195131291237,0.35428766777416
55,1.60679117757447,2.59893417358398,-0.159013208601415,-1.57641082589656,1.60679117757447,-0.0555895666493944,-0.0331584460715297,0.0647277565357089,-0.00450862302984263,-0.135637887833458,0.135876780191923,0.00876396794802406,0.170444547144255,0.172689301915966,15.4614811971838,0.911364042154553,0.703719406518236,0.176741943874838,0.240208261940927,0.146381003476382,0.417460309447923,0.159947983873099,0.0360999700340337,NaN,NaN,NaN,NaN,1.6954412846166,-94.4207914550518,1.5,stable,stable,1,0.463015507736385,0.235098929467021,0.225274612343259,0.898939086680152,0.334941776232719
56,1.69534596562386,2.50824952125549,-0.0844224064867817,-1.68173443908686,1.69534596562386,0.0022996017958696,0.00663006193793236,0.0070175415724017,-0.00155948601325225,-0.148577428575362,0.148620105810382,0.00959470544397768,0.118775042879421,0.120004682501778,15.4431241884806,1.90399495807093,1.86045267155325,0.0243775676327956,0.0522968738228787,0.119269207486552,0.442119319319389,0.000204402783889121,0.00656444493681285,NaN,NaN,NaN,NaN,1.73280982852964,-92.1431804697514,2.07316185186827,stable,stable,1,0.47609319400005,0.184189849305392,0.112991826151078,0.958233413379412,0.34699146333931
57,1.60966130178802,2.32177233695984,-0.182158134584216,-1.58877160875058,1.60966130178802,-0.0367531369501288,-0.0182575233465388,0.041038155836055,-0.00355559727526915,-0.134039897137932,0.13415176491837,0.00865591702529313,0.105420831744821,0.107609448846175,15.3580205958206,1.1149144185341,0.958765548110224,0.177238562687735,0.240182293473901,0.137644901709144,0.448846559094906,0.159453225623546,0.0355879396291986,NaN,NaN,NaN,NaN,1.65239533729994,-95.8334835366937,1.9266764907405,stable,stable,1,0.450764903579373,0.167748644816936,0.184458356123366,0.895087518918213,0.338824488129269
58,1.63634340698216,2.35637140274048,-0.0924392630532277,-1.62186691388018,1.63634340698216,-0.0400239696751309,-0.0245054487482024,0.0469301093851972,-0.00176752678237549,-0.138476413069931,0.13853756080211,0.00893828366184404,0.114611079123466,0.116979147394446,15.3856710369936,1.11985785792923,0.896559910428809,0.177731266786395,0.240184176154526,0.128555167957711,0.450193825277777,0.159539432508249,0.0360939039001665,NaN,NaN,NaN,NaN,1.68060545220575,-92.4282145747537,1.91002585432992,stable,stable,1,0.459754071340799,0.170610152432907,0.186397561871552,0.895291084141132,0.342864369796573
59,2.50341461288849,3,-0.50172833949975,-2.42065214440227,2.50341461288849,0.00541665887450681,0.00745867663978248,0.00921802856252953,-0.0220054972639919,-0.309050194757124,0.310641301916082,0.0200583258696607,0.218187298851725,0.220612017228398,15.3880346955881,1.98461834537613,1.74445399407413,0.0220175141121558,0.0494085973190096,0.134518661803722,0.39733448640058,0.0134867448029838,0.0127497186949022,NaN,NaN,NaN,NaN,2.78982386220964,-100.41262924442,2.06404322102941,stable,stable,1,0.711699633549277,0.11342168400322,0.078683380546859,0.959691388848242,0.340213928087235
60,1.68008886145897,2.28782939910889,-0.0756668104047124,-1.66730026646615,1.68008886145897,-0.0342941400005171,-0.00799852181386415,0.0352145479820759,-0.00141952043490586,-0.146459920779498,0.146500357688694,0.00945344641509754,0.11668064082343,0.119191502491811,15.3410586481487,1.19384073908985,0.94872930623988,0.177275879888843,0.240177708908505,0.1454047159965,0.435937404994504,0.159243932717773,0.0356344861354976,NaN,NaN,NaN,NaN,1.72864210057146,-91.9462754292346,1.79661673437777,stable,stable,1,0.47186199688742,0.143197621434613,0.169651649027029,0.894527581127988,0.335375681779333
61,1.61629128253379,2.31804347038269,-0.179626299243865,-1.59437864491336,1.61629128253379,-0.0441344270889405,-0.0109320386236851,0.0454681990289779,-0.00364683756407015,-0.13471862437298,0.134842699217752,0.00869729873477737,0.120422514096038,0.122658857242115,15.4537921025736,0.898403553046641,0.692637913952852,0.177124744298306,0.240182711988104,0.146653193308653,0.362187165422278,0.159683218241601,0.0365313133934729,NaN,NaN,NaN,NaN,1.6541677253945,-95.777639022521,1.50986663762412,stable,stable,1,0.4555427801241,0.166230078754649,0.183992480432542,0.898936587752994,0.334820802973932
62,2.60210070451101,3,-0.525519281667468,-2.51691843687705,2.60210070451101,0.00898075876550476,0.00434333190944902,0.00997589896098735,-0.0232025594678266,-0.330210986743879,0.331863748550443,0.0214295483989145,0.194262957247016,0.196866027602751,15.3554749887012,1.98681919432574,1.83153698648678,0.032334517827106,0.071116740744699,0.121852701319584,0.469669444318065,0.0134161452529374,0.00486679494125557,NaN,NaN,NaN,NaN,2.96888331606625,-100.576107342626,1.72419831711204,stable,stable,1,0.733266726723485,0.0913562562945379,0.0625462286152525,0.953831371094349,0.345843243857963
63,1.53398200849287,2.32807755470276,-0.0749820991813462,-1.52252665498446,1.53398200849287,-0.0306505958349467,-0.01283816522591,0.0332306712451767,-0.00119022214066299,-0.122878376357082,0.122909137178707,0.00792728836855188,0.109115368678129,0.111140052728256,15.4329388266169,0.937962578523398,0.621130398804217,0.176906952720454,0.240167958691688,0.116194858766255,0.388686788979594,0.159434541996595,0.0364699040676376,NaN,NaN,NaN,NaN,1.60300708299886,-92.1234906695166,2.01842902895556,stable,stable,1,0.431289879477082,0.184763787625508,0.194979852315559,0.899296507389342,0.348357840548331
64,2.63451225344189,3,-0.603018517007986,-2.53240095703417,2.63451225344189,-0.0160456359509615,0.00349539817505766,0.0164219439005553,-0.0286870243411815,-0.337442985416546,0.339886339547177,0.0219357013623327,0.201177087588563,0.203188195789141,15.3856945018975,1.61114904794384,1.30228251817341,0.062625596140948,0.240361480936789,0.113306741530492,0.450857336129384,0.00189699389656795,0.00908534269933257,NaN,NaN,NaN,NaN,3,-102.201792877698,2.12578780656816,unstable,unstable,0,0.743174240075666,0.0852454326906765,0.055294128994456,0.945795953910033,0.34964144820867
65,1.47834042667532,2.42852163314819,-0.138068765977134,-1.45120819788264,1.47834042667532,-0.0524925916330403,-0.0307955186846557,0.0608591500713748,-0.00337091422224583,-0.115256063644625,0.115423256212933,0.00744380580721574,0.154964724385477,0.156876851603168,15.4602041779658,0.789216132492499,0.644576454350988,0.177297430207252,0.2401719231642,0.120173061429771,0.418941907475311,0.159166723787923,0.0362546863180324,NaN,NaN,NaN,NaN,1.55228808798252,-94.2268777224065,1.5,stable,stable,1,0.425599484100718,0.224948282302816,0.218893257807122,0.900085771714032,0.346589750475657
66,1.57887950619062,2.26435542106628,-0.125279487209691,-1.56332153072378,1.57887950619062,0.00417498736457133,0.00461053383985654,0.0062199310110959,-0.00222788889333066,-0.127907573485679,0.12796578155903,0.00826677649261463,0.109885944629108,0.110939176373353,15.3568164686291,2.23211155539014,2.18927245318082,0.0189023833572916,0.073980848232088,0.13986745554316,0.481748188349174,0.000190518329707141,0.00545845815812484,NaN,NaN,NaN,NaN,1.60696450398557,-93.5145725727472,2.29158785576501,stable,stable,1,0.443222370258835,0.155372401532393,0.0952930096083204,0.955809362539725,0.337836686425262
67,1.64076394856382,2.45600628852844,-0.116985455335,-1.61476518324055,1.64076394856382,-0.0572942364881161,-0.0269686238348365,0.0633240570897118,-0.00307475750660177,-0.141613836502552,0.14175828683919,0.00914303130655751,0.158971387483967,0.161258549309978,15.4555142857451,0.972961320428569,0.666528589276611,0.176834212336044,0.240213245721228,0.14420317438499,0.355622077500239,0.15942365687722,0.0349917357983498,NaN,NaN,NaN,NaN,1.70472744872138,-93.0615211949791,2.38369496736847,stable,stable,1,0.469788762812346,0.195038936958488,0.200602588350227,0.89870118739858,0.335909700273338
68,1.58359537400356,2.28098845481873,-0.124254316877337,-1.56752913390991,1.58359537400356,-0.0348114846593867,-0.0177116121032004,0.0390581703038552,-0.00219713541991839,-0.129945083104349,0.130003639303409,0.00838480851128996,0.109186505680202,0.111457462546738,15.4590941538083,0.844156662178781,0.684439655891618,0.176244469770493,0.240188808212879,0.148789694956487,0.413854237558415,0.160151806988692,0.0341168357548813,NaN,NaN,NaN,NaN,1.6346567991892,-94.1375227104005,2.07101862121992,stable,stable,1,0.44458359224363,0.164074107739119,0.182029167620019,0.899867365472772,0.333871246686006
69,2.61615151445071,3,-0.389207864533095,-2.55645673973109,2.61615151445071,0.0059206493559587,0.00251251198257023,0.00643170313826542,-0.0158549746580161,-0.340038540538908,0.340869231301949,0.0219931078089821,0.197455497375369,0.200165680600357,15.4291904321069,1.4279213136993,1.15232356631364,0.0311373724863759,0.0586607291656465,0.0905843152709974,0.415648493058736,0.0121735038639343,0.00557829407553471,NaN,NaN,NaN,NaN,2.97762147861884,-97.4745863886534,1.79763858091469,stable,stable,1,0.737673539973594,0.0875450548239391,0.0599659496290338,0.964157961128139,0.359740304324001
70,1.68568504099943,2.45151019096375,-0.0764621028521007,-1.67273122024036,1.68568504099943,-0.0285020198984252,-0.0256548871105466,0.0383475992852892,-0.00140015292108865,-0.148901352698088,0.148947344957156,0.00960499129480772,0.123425694821136,0.125894215189728,15.4754222110546,0.787360614467233,0.37731600562291,0.176256545580485,0.240184950280735,0.0973129336349479,0.327160976835762,0.159566311213267,0.038251357000464,NaN,NaN,NaN,NaN,1.74106956136438,-91.9626622500687,2.20722595530507,stable,stable,1,0.474694853971128,0.179341051944273,0.192432576069599,0.902720696623335,0.356749807273357
71,1.62380393427245,2.29270577430725,-0.19522612359535,-1.60058059452366,1.62380393427245,-0.0403757950855589,-0.00705628353836934,0.0409877538560593,-0.00395157678431584,-0.13573182267422,0.135869879707553,0.00876296523937521,0.120282159294883,0.122599354135879,15.4745057288661,0.832909116707931,0.652473978456002,0.175872218949777,0.240198868968683,0.1625279892471,0.39694004744036,0.158619844230778,0.0354710522930995,NaN,NaN,NaN,NaN,1.67774962146967,-95.9395937551425,2.31342761387239,stable,stable,1,0.45753425329983,0.158017335548107,0.178206674346095,0.900393023348823,0.3277653381124
72,2.62560024857521,3,-0.608928588113028,-2.52313221610188,2.62560024857521,0.00584391794379269,0.00642533293930516,0.00868540616866603,-0.0279332184757626,-0.331397284569586,0.333596064358576,0.0215389030109297,0.195399416806608,0.198131271438566,15.3617509824617,1.95933764792652,1.59705440746388,0.0348191913013694,0.0744893931320724,0.123706672917259,0.486328984209796,0.0241583235005486,0.00465562550422547,NaN,NaN,NaN,NaN,3,-102.28205700878,1.57469601415023,stable,stable,1,0.739786320574436,0.0858322685348331,0.0639293485166196,0.954647323914105,0.345019256481218
73,1.67022293319508,2.54964995384216,-0.176405364817734,-1.63881162100831,1.67022293319508,-0.0574429566512642,-0.0311465940157794,0.0653437341114112,-0.0052347435645817,-0.146488142553637,0.146764276342872,0.00946488324618191,0.167541189493388,0.169788085784115,15.4565921054642,0.937008545959637,0.435161780763981,0.177148074270688,0.240265597258604,0.131557260373733,0.369407609910884,0.159683424765152,0.0367388001927872,NaN,NaN,NaN,NaN,1.730743683828,-94.7490683234343,1.52346711836555,stable,stable,1,0.479350399342176,0.209850764232687,0.210240433252814,0.900644624583256,0.341530106500563
74,2.67758843281079,3,-0.598084516242663,-2.57769603720426,2.67758843281079,-0.0253976812510754,-0.0127456144914476,0.0284164195791065,-0.026110841305053,-0.340346872261401,0.342350478221675,0.0220965610321339,0.20383556392833,0.205871231492603,15.402126423804,1.68506842934156,1.38143580653692,0.0626548795266856,0.240304840464052,0.118495762220993,0.458534376421639,0.00184554386392257,0.0106589366831138,NaN,NaN,NaN,NaN,3,-101.440236798872,1.94193272950816,unstable,unstable,0,0.755197828381397,0.0777522795404095,0.0513475864172223,0.944578598383326,0.34733521679067
75,1.65967903899498,2.62029600143433,-0.196902427591819,-1.62445950438496,1.65967903899498,-0.0588842304147315,-0.00987286279596867,0.05970616393073,-0.00571516025400047,-0.144724192712665,0.145043388520042,0.00935575318619066,0.179744505813263,0.182165656978506,15.4339237180283,0.948176593594892,0.758105765243836,0.176479337771516,0.240272247333353,0.155526615565882,0.391077334966811,0.159381804897787,0.0374804462970609,NaN,NaN,NaN,NaN,1.72844746755899,-95.0560971705178,1.6824590954727,stable,stable,1,0.479014208461028,0.227084946602821,0.220716578892973,0.898353826866223,0.330877059748497
76,1.77185956458251,2.5113685131073,-0.220708870630058,-1.74709340983095,1.77185956458251,0.00562841710833958,0.00401781804419015,0.0069153409880981,-0.00459921129324524,-0.159768147092379,0.159911813767734,0.0103287150788969,0.125947137690346,0.127189684349276,15.3505114838467,2.0762556725686,2.12927801363959,0.0153328983739784,0.072437795697809,0.136467473068775,0.482078943268941,0.000152935289091814,0.0060555603274412,NaN,NaN,NaN,NaN,1.80133462105751,-96.2777836497926,2.44712656100006,stable,stable,1,0.497933820758524,0.167657325932563,0.102864388736386,0.959290071849947,0.339347789747211
77,1.68284701206246,2.30938792228699,-0.129613100976112,-1.66674924385709,1.68284701206246,-0.0374332973745282,-0.0215009936844224,0.0431687905986192,-0.00249720480693326,-0.146475495672977,0.146540704682012,0.0094513284562085,0.118744357947677,0.121176921534987,15.4537591384839,0.869649668996655,0.66935184395399,0.176257373788175,0.24018881910407,0.120638045179233,0.390106238796472,0.159593355523257,0.0336459397304109,NaN,NaN,NaN,NaN,1.75923009576763,-93.8331549635916,2.19306146752277,stable,stable,1,0.472994587523654,0.148885983076932,0.172496857253413,0.8997791583613,0.346383091031452
78,1.76885221036924,2.4953088760376,-0.199790110069171,-1.7452980434425,1.76885221036924,-0.039957398735303,-0.0157515294595608,0.0429500220489746,-0.00432317925287606,-0.160211475919785,0.160347708464703,0.01034128076393,0.12040703543961,0.123117157456453,15.4587180244859,0.872546690634421,0.593628882597029,0.176554760844049,0.24021044704429,0.102767040643585,0.4120114380543,0.159538226299499,0.0349317002028026,NaN,NaN,NaN,NaN,1.84421771642335,-95.6415120879709,1.74151953975452,stable,stable,1,0.496317354256421,0.171326920484359,0.186404467083331,0.900202668645443,0.354325759713962
79,2.61216444969177,3,-0.403346539024819,-2.54765716384731,2.61216444969177,0.00581794756615846,0.00336686318214014,0.00672192543619906,-0.0168890789416084,-0.338223185360525,0.339178320514624,0.0218938152977397,0.201650815395495,0.2043821401742,15.394704450185,1.79587602516538,1.65853042837982,0.0188621833222776,0.0724275654668853,0.116611797238594,0.471509446207087,0.000121968380388851,0.00537795937300788,NaN,NaN,NaN,NaN,3,-97.5958361626102,2.29395166002679,stable,stable,1,0.737453614619313,0.0884953518159877,0.055107040848839,0.96342714334672,0.348172534560625
80,1.77840557795804,2.34119701385498,-0.216017752089342,-1.75474668494458,1.77840557795804,-0.0354109920256113,-0.0112530088962719,0.037156003087758,-0.00440563315908369,-0.161496246461193,0.161626298412786,0.010425565929358,0.110066761920024,0.112850030628593,15.3862342297829,1.02782542225001,0.699866231676199,0.178284164033618,0.240219505380394,0.148598702743448,0.441789450566668,0.159689750537659,0.0366539917162573,NaN,NaN,NaN,NaN,1.84269174465958,-96.4089816842801,1.69756004464992,stable,stable,1,0.496811493581195,0.133440006976235,0.16436595090738,0.897283197845199,0.333956132114023
81,1.82275020427444,2.56599259376526,-0.20712046387348,-1.79260877406889,1.82275020427444,-0.0488138961923438,-0.0193173617595759,0.0524972087527256,-0.00543091183469572,-0.16959996105845,0.169836822480039,0.0109529604039707,0.13703259216938,0.139855607509035,15.4491515435152,0.861452965864741,0.58822026331718,0.176835004481097,0.240249706150602,0.128207034492465,0.434089343649363,0.159556977318582,0.0358576062366156,NaN,NaN,NaN,NaN,1.90149022471625,-95.3637271300002,2.37101668448692,stable,stable,1,0.514037842641659,0.176854025906766,0.190065757226239,0.900192208101594,0.343019095781127
82,2.59070548653603,3,-0.395962529039288,-2.52557601727645,2.59070548653603,0.00607273204294764,0.0011775624828119,0.00618584900125836,-0.0168516252010721,-0.332802255292347,0.333787521271774,0.0215465798116272,0.205885031035149,0.208559300247234,15.4176340074958,1.82831296947325,1.5789722403095,0.0333102604606669,0.0487394495370187,0.121427931677391,0.385572518548765,0.0233303600253612,0.00543006662506169,NaN,NaN,NaN,NaN,2.91783086718893,-97.7855854258006,1.5,stable,stable,1,0.732566656459054,0.0932253378462915,0.0682788212897761,0.956573343121373,0.346032030365604
83,1.68560378892081,2.56159353256226,-0.30022310913162,-1.64115690514509,1.68560378892081,-0.0511795546878341,-0.0149446546689209,0.0533168783896647,-0.008093810129764,-0.144843013641578,0.145304291023542,0.00937367688009867,0.141637578751318,0.144038376732749,15.3856111990801,1.01081656049061,0.864946958660426,0.177010112216342,0.240213282462237,0.152811094351941,0.442625147698783,0.159197765729653,0.0356403266934597,NaN,NaN,NaN,NaN,1.75027764965131,-99.5200046041142,2.2670416121476,stable,stable,1,0.478302019058766,0.20687245335743,0.207838153358592,0.896756801955642,0.332083958065804
84,2.57260174181511,3,-0.400730341351005,-2.51150457386972,2.57260174181511,-0.00991472886816503,0.0187997587677506,0.0212540061695399,-0.0174033320054561,-0.340744805711064,0.341730043244674,0.0220491452394974,0.200915746729499,0.202924180287877,15.4364796650376,1.51532992837211,0.963825463030697,0.0627956166259828,0.240435735026257,0.113517219867737,0.391737141793665,0.0019392988140288,0.00938682708573916,NaN,NaN,NaN,NaN,2.95681470906161,-98.270421652992,2.36804130097519,unstable,unstable,0,0.726611967208272,0.100061175889349,0.0643120077851637,0.949123113611701,0.349547902281006
85,2.01792527623728,2.86912178993225,-0.442824977612379,-1.95079991641433,2.01792527623728,-0.0611604798583247,-0.0141700694004908,0.0627805317221451,-0.014418944389539,-0.202273171037003,0.203265573798208,0.0131140599319982,0.156873796473602,0.160164917123465,15.3920835951147,1.27194107724268,0.888349256072077,0.176334981725514,0.240304024162009,0.13756294529951,0.445698031330431,0.156818371862636,0.0417397511868808,NaN,NaN,NaN,NaN,2.10680641889481,-101.731697741666,1.54101307292367,stable,stable,1,0.570146390421301,0.203028979730428,0.206692533340113,0.894858799375484,0.338860913200218
86,1.98024046063423,2.77921724319458,-0.550800804670166,-1.88880593218124,1.98024046063423,0.00216361958188269,0.0026963141616052,0.00345707387152473,-0.0187451570084041,-0.18674766480287,0.188199087153511,0.0121539416604792,0.137086338918396,0.13860402967143,15.4141953676952,2.06664943869622,1.95568163330422,0.0192688573500719,0.050765393626694,0.134732633479604,0.446474525720846,0.000213458432402294,0.00630875473111822,NaN,NaN,NaN,NaN,2.01104491577433,-105.279667622794,2.30625513003459,stable,stable,1,0.555784928770081,0.180403572952525,0.110631106815413,0.958761541473532,0.340118829564621
87,1.98413598902371,3,-1.14815713608162,-1.58473338207744,1.98413598902371,-0.0734305496764745,0.018209192361053,0.0756546119693375,-0.0768114884764507,-0.138634682636675,0.165263950573699,0.0106585141747892,0.20224218408386,0.204787470278455,15.4512149467829,0.756961985400625,0.939039710518404,0.176586876052332,0.24033951751749,0.131564483833131,0.427777125892235,0.159608472201502,0.0362456188200931,NaN,NaN,NaN,NaN,2.06469467336038,-124.238920485483,1.5,stable,stable,1,0.570060424462015,0.242439414664043,0.229580972580137,0.898380834363042,0.341526896074164
88,1.94292011634022,2.71386122703552,-1.08749398065974,-1.59445383962969,1.94292011634022,-0.0523474439969099,-0.00287894734391629,0.0524265508193955,-0.0643285980639033,-0.134917232170452,0.152212079043988,0.0098181295888326,0.135715551114925,0.138091063663111,15.4470136897173,0.948240046790193,1.00014119456513,0.17730205610969,0.240242742381065,0.165371726961514,0.489646350002876,0.159646302809536,0.0367896468098065,NaN,NaN,NaN,NaN,2.00959748573364,-123.70580417537,2.18405539608028,stable,stable,1,0.545730243756681,0.183073284223332,0.194175936279177,0.896040262191649,0.326501454683772
89,2.62894190470378,3,-0.239707398805127,-2.58646686495596,2.62894190470378,0.00533989631413771,0.00544911737003668,0.00762937564668151,-0.00940402077835071,-0.34744041046418,0.347860492078475,0.0224629816345021,0.192416531922364,0.1952291677547,15.3599251377161,2.02541994181842,1.89147225421967,0.0151961839238791,0.0580125798806288,0.128456844268436,0.502726678943693,0.000321298077772762,0.00516111007016139,NaN,NaN,NaN,NaN,3,-94.0907171926139,2.45843168954545,stable,stable,1,0.740097008138614,0.0848867903102087,0.0529516406300425,0.961626326497761,0.342908069214029
90,1.93634173497051,2.69873285293579,-1.03854129868994,-1.61883964279505,1.93634173497051,-0.0605401207689072,-0.00572027183195338,0.0608097667529264,-0.0592489754371633,-0.138756708978745,0.153425426368615,0.00989631057482117,0.136401367329962,0.138777143536445,15.4436279058946,0.888309165381609,1.03862115805525,0.17644838674305,0.240248494763319,0.1623197088096,0.376684769763365,0.159645140956411,0.0376886640609451,NaN,NaN,NaN,NaN,1.99637079272466,-122.311062912018,2.03215485094652,stable,stable,1,0.544113224699424,0.182686458780225,0.194270239998197,0.896635639801471,0.327857907195733
91,1.86891073191247,2.52766418457031,-1.12539805272165,-1.47481852128159,1.86891073191247,-0.054105536259888,0.00901463001441317,0.0548513683354099,-0.0694388068931033,-0.115198336147559,0.137785125550452,0.00888789856838329,0.136978283378288,0.139181680741128,15.4060441070374,0.923960275596249,1.08706626551525,0.176876270360423,0.240216662677275,0.164114252189607,0.529882230675479,0.159524134884903,0.0375943433693762,NaN,NaN,NaN,NaN,1.94546366280019,-126.251978914843,1.76532301348808,stable,stable,1,0.526212531324884,0.15827561104284,0.179535652446242,0.89576094199677,0.327060332360175
92,2.6153818543752,3,-0.484214323698491,-2.53834461495915,2.6153818543752,0.00342415097404641,0.00422425098347343,0.00543774827152188,-0.0210516475594846,-0.336065562595797,0.337457191704471,0.021795484608402,0.198882540333926,0.201448773479634,15.3510228604534,2.12512835783769,1.98235673196878,0.0179240732876142,0.0751336538388781,0.133499244595192,0.530932769750656,0.000181198356669749,0.00471028153928973,NaN,NaN,NaN,NaN,3,-99.2513675644137,2.3431949215095,stable,stable,1,0.737724915862648,0.0875360032820249,0.0543149642228301,0.958764866221999,0.340667002402137
93,1.68518581033564,2.29482388496399,-1.01629642155525,-1.33248889084338,1.68518581033564,-0.0419818203754184,0.00121514149759522,0.0419994025063818,-0.0562149793209597,-0.0943954416802395,0.111909190694861,0.00721842417629695,0.114303608882025,0.11612115163225,15.4497028937659,0.91064147104216,0.931527746164842,0.176951413416263,0.240182861673818,0.157092152565459,0.414917744043309,0.159566381027198,0.0352017918095536,NaN,NaN,NaN,NaN,1.74681180591764,-126.657123786368,1.84259589780208,stable,stable,1,0.47260711308262,0.144868457250882,0.170640117485283,0.897050106585242,0.330181265526463
94,2.62060264923993,3,-0.259103429970873,-2.57645299985458,2.62060264923993,-0.0197265307387776,0.00956470096757803,0.0219230362766458,-0.00989270121170122,-0.354096535002064,0.354543282773696,0.0228786248924402,0.196765983480043,0.198925656321003,15.423580124275,1.45127153991133,1.22924802828783,0.0624217269570331,0.240374760090871,0.108294659185658,0.425455029394987,0.00191914308854821,0.0100999149976044,NaN,NaN,NaN,NaN,3,-94.2734617915732,2.21422906240905,unstable,unstable,0,0.738612504394849,0.0893836272384002,0.0581558251896045,0.947727911342776,0.35186904036193
95,1.81742770169057,2.63182497024536,-1.1568752964191,-1.38344594561074,1.81742770169057,-0.0577157840386899,0.00935397278710437,0.0584688680761187,-0.0724958859197271,-0.101537918061586,0.128365466306879,0.00828326279493974,0.124316213920945,0.126484839878277,15.3444074189824,1.18395530596548,1.20535059380811,0.177343258897705,0.240201225688117,0.158384834021623,0.462160549422721,0.159624637551098,0.0371138620850885,NaN,NaN,NaN,NaN,1.86493072097439,-128.583435678336,2.11565019539816,stable,stable,1,0.509944355093141,0.19395867790545,0.200815439948436,0.892555252767212,0.329606740434834
96,1.72656111955643,2.44920039176941,-1.06257073091305,-1.34645677929968,1.72656111955643,0.00634746311089626,0.00411610062192648,0.00756522123100259,-0.0608471480016904,-0.0955959236124805,0.115932627071011,0.00748665277253215,0.125983203838297,0.12692043251339,15.4050654916775,1.98513481188296,2.03559596384871,0.0300678528852008,0.0598442013915009,0.137723360410698,0.49113644179844,0.0109343251493242,0.00614461970741278,NaN,NaN,NaN,NaN,1.76269102467469,-127.19753908103,1.83038273027661,stable,stable,1,0.485800385051058,0.163980793473605,0.105482583316861,0.953374617462365,0.338789617595245
97,1.7774389836253,2.56345176696777,-1.09676475419417,-1.37781699180462,1.7774389836253,-0.0536276496757176,0.0140490132090243,0.0554373482580907,-0.0664285296550498,-0.101638239949358,0.125358422792031,0.00808562791109727,0.133658581141725,0.135665098281547,15.4313190407967,0.831068689915065,0.960729041044664,0.176989090920424,0.240230745770433,0.143412359111844,0.39051341762972,0.159549720106018,0.0366695691560446,NaN,NaN,NaN,NaN,1.81622668042125,-127.513201967813,2.42704517303554,stable,stable,1,0.501116748623055,0.187016390099374,0.196455209557427,0.897427043796533,0.336261173728069
98,1.87128561370227,2.59184861183167,-1.1888110868381,-1.42887301230464,1.87128561370227,-0.0401062210986911,0.00895603764994917,0.0410940334015098,-0.0761523536367753,-0.108366095256749,0.135761045120133,0.00875863370933606,0.129938212049293,0.132142246816555,15.3841280534654,0.98310764249179,1.19833950706369,0.177271658569481,0.242387284830615,0.192388086849586,0.5303777757344,0.156544103477533,0.0413335549870536,NaN,NaN,NaN,NaN,1.91962505408224,-128.853168090004,2.38005836061358,stable,stable,1,0.525437946350582,0.169660580702724,0.186401889154416,0.894224228825895,0.314494183622406
99,2.62931151310603,3,-0.162720373305727,-2.59211294521271,2.62931151310603,0.00332059017462219,0.00419110246385249,0.00534711688392051,-0.00611718301828553,-0.349411638558312,0.349701259193845,0.0225693015132586,0.196296863898239,0.199131806788103,15.4390338418604,1.73679232934067,1.3478831809544,0.0304286740263781,0.0513233767269737,0.105591714223352,0.433008514649986,0.0115397995971206,0.00520118084545095,NaN,NaN,NaN,NaN,3,-92.2002194325483,1.80110208400678,stable,stable,1,0.740976098185895,0.0843852143131957,0.0576512668981148,0.960548926834492,0.353070349234066
100,1.62805599460796,2.40755081176758,-1.02007781466261,-1.24869602396243,1.62805599460796,-0.0467076880748968,0.00341324802225598,0.0468322366256759,-0.0575558883382329,-0.0842554882281451,0.105569997429199,0.00681011208912885,0.133566148361625,0.135321686139098,15.36933949981,0.958849140758581,0.972377767363042,0.17686659643412,0.240181860634076,0.135429627337134,0.430793647604427,0.159531522118525,0.0351446586697589,NaN,NaN,NaN,NaN,1.68546986904653,-128.540481584722,1.60253806333952,stable,stable,1,0.46121260245661,0.183972243908954,0.194066120944629,0.89639277607627,0.339809054516829
