scenario_id,mean_wind_speed,max_wind_speed,wind_velocity_x,wind_velocity_y,wind_velocity,wind_acceleration_x,wind_acceleration_y,wind_acceleration,wind_body_force_x,wind_body_force_y,wind_body_force,mean_wind_body_risk,mean_wind_gust_risk,mean_wind_risk_raw,min_thrust_margin_n,mean_abs_roll_deg,mean_abs_pitch_deg,mean_abs_vz,max_abs_vz,mean_tag_error,max_tag_error,stability_std_z,stability_std_vz,mean_imu_ang_vel,max_imu_ang_vel,mean_imu_lin_acc,max_imu_lin_acc,wind_speed_cmd,wind_dir_cmd,hover_height_cmd,gt_safe_to_land,label,success,onto_wind_condition,onto_gust,onto_temporal_pattern,onto_drone_state,onto_tag_observation
1,2.03025879908581,2.75411319732666,-1.2563492799849,-1.577414754128,2.03025879908581,-0.0543412256576734,0.011591257051746,0.0555637115932497,-0.0853642484954345,-0.130957406762942,0.160025759044151,0.010322419275677,0.127897175762095,0.130570446718203,15.4519928482191,0.889067841586807,1.02920799128781,0.176353379019167,0.240265484349615,0.139925306520119,0.404174718963559,0.159653806542407,0.0390655329848271,NaN,NaN,NaN,NaN,2.0716688985117,-127.374480982322,2.31472368639318,stable,stable,1,0.567516435766524,0.173053920062953,0.188995247748072,0.896751143232116,0.337810974879947
2,2.30104714910189,3,-1.38983077944078,-1.79532173382275,2.30104714910189,0.0109568306716897,0.00666451895324626,0.0128245058870219,-0.10986585921871,-0.174558521945053,0.215559703692606,0.0139121864752035,0.228391253164935,0.230086386654588,15.4344278013973,1.4878406683821,1.56174263864599,0.034178600237788,0.0724473328019631,0.109396213326058,0.493722575260386,0.0253582491633243,0.00553124879972028,NaN,NaN,NaN,NaN,2.42882567996652,-126.095851442396,1.57120630545374,stable,stable,1,0.659629850424756,0.159615550864695,0.109051026680193,0.958949688183028,0.351379460743974
3,1.81734945579451,2.45452046394348,-1.12186203987222,-1.41531253735045,1.81734945579451,-0.0365068052282967,0.0227099801072777,0.0429940696427977,-0.0680451899705331,-0.106695561180014,0.12928782892985,0.00834068369788496,0.125714703402522,0.127793491068707,15.4345772491307,0.871185385164534,1.17889993268838,0.177485628160057,0.240232167962124,0.169610041576718,0.470594388496385,0.159527074875327,0.0372252487476591,NaN,NaN,NaN,NaN,1.87319628751653,-127.297520073929,1.68338744767195,stable,stable,1,0.510185219758944,0.151245722934698,0.175184810017689,0.89514937270827,0.324617759299237
4,2.43179100354513,3,-0.712014369216612,-2.29021757824876,2.43179100354513,-0.0301046845004454,-0.015682130815687,0.033944384746106,-0.0315425901230169,-0.271909148611801,0.275418774790412,0.0177716958018178,0.23133470905573,0.232911553418188,15.4436392060624,1.38955092995713,1.27795805298411,0.0630506860225354,0.240196558108188,0.109167665696293,0.440917255140903,0.00184847779044589,0.00755009555210893,NaN,NaN,NaN,NaN,2.46779887999601,-105.553838771394,1.53993928764592,unstable,unstable,0,0.695059911629004,0.1340701614058,0.0840091318197984,0.947515657837051,0.351481037468314
5,1.83611502059518,2.62445521354675,-1.07172582692698,-1.46846761300816,1.83611502059518,-0.056122069291085,0.00916088770682582,0.0568648267832622,-0.063680461252695,-0.115227390827448,0.135679282486677,0.00875412143665847,0.149319221068875,0.151534094761955,15.40392139779,1.15362587184705,1.06912944716398,0.17814612922691,0.240218711169963,0.160700134740257,0.467007499173103,0.159499945069247,0.0376694995101627,NaN,NaN,NaN,NaN,1.88084050141636,-125.058018224367,1.61342841498947,stable,stable,1,0.519937491111107,0.187801761657701,0.197267921291719,0.893462429308601,0.328577717893219
6,1.87272988637288,2.75968050956726,-1.03686559567882,-1.53927419244045,1.87272988637288,0.00369696570011506,0.00300697590781478,0.00476544431275886,-0.0599565172712611,-0.125574187223565,0.142557174436576,0.00920049449164834,0.14937765644038,0.150484127534467,15.4391251114052,1.74317190738091,1.37027976869938,0.0218411278451162,0.0457309896324673,0.115248058102158,0.406099661373266,0.000235039396821762,0.00711131422027838,NaN,NaN,NaN,NaN,1.9161886291726,-122.783489357006,2.16026202459381,stable,stable,1,0.529491461872996,0.200437555009407,0.122952927403525,0.964616601479668,0.348778640843485
7,1.92955311971742,2.66176176071167,-1.07797755516781,-1.58557195453885,1.92955311971742,-0.0438651078355181,-0.00193590849603749,0.0439078059930881,-0.0636777248015151,-0.132728155650946,0.149901227684321,0.00966787321569188,0.127149362425344,0.129533606671834,15.4749360839184,0.811528485628641,0.895095933056657,0.175993249618701,0.240247674936565,0.118626280538272,0.394517544238074,0.157714380001575,0.0391327255876869,NaN,NaN,NaN,NaN,1.96867067391655,-123.586570068552,2.23858552930632,stable,stable,1,0.540454219925678,0.172796708655773,0.18800338722605,0.898594183329551,0.347277208649657
8,1.91609174613185,2.5935492515564,-1.1139711719608,-1.54134130395661,1.91609174613185,-0.0579028994771425,0.0114905920753017,0.0590320207523091,-0.0682550173362256,-0.126839727864885,0.14733797327996,0.00950542569863091,0.145384909212159,0.147716777499465,15.4317981957411,1.13015572096269,1.05776831528858,0.174780345137791,0.240244955866959,0.153256053485265,0.478900771667665,0.156789214724409,0.0403629388291431,NaN,NaN,NaN,NaN,1.96461919299708,-125.030810267647,2.39645263918037,stable,stable,1,0.540501154468385,0.163250475858447,0.182311813249646,0.895418995717701,0.331886198450993
9,2.60306800847069,3,-0.797052067633548,-2.44403328752426,2.60306800847069,0.00506089030927642,0.00237074485068311,0.00558865295662277,-0.0420387574206411,-0.311685086483225,0.31653593759929,0.0204439826463469,0.201364886204266,0.203774861183081,15.3636067749455,2.20969862074244,1.94081482660155,0.0278839746917063,0.0488894844756357,0.148199491177266,0.408176928622708,0.0265999202579061,0.00606851255800943,NaN,NaN,NaN,NaN,2.98365709536118,-106.900241715489,1.74671895815353,stable,stable,1,0.734906441162135,0.0903342844694745,0.0682294893022525,0.953446835567873,0.334133559476771
10,1.85327606136296,2.7893967628479,-1.12083312470888,-1.44425107759005,1.85327606136296,-0.064220930024131,0.0136221510998456,0.0656497589771002,-0.0727496284942362,-0.115569411769732,0.142902523236447,0.00921931305986023,0.190717909810743,0.192956686153672,15.3629059346435,1.06948771130206,1.15990421254176,0.177776837747458,0.240295527733463,0.177843779987749,0.478761661915634,0.159496580552522,0.0388570139364369,NaN,NaN,NaN,NaN,1.92399487038037,-126.353098118705,1.9385937571402,stable,stable,1,0.532798286927524,0.222662946979913,0.218614960572016,0.89359493029607,0.320958320005445
11,1.84457944212733,2.7209632396698,-1.15024239161507,-1.4117710906458,1.84457944212733,-0.0744736144624242,0.00883414151089769,0.0749957419280079,-0.0759912506134302,-0.110179316598345,0.140010990896292,0.00902919736368715,0.187692522304308,0.189920717309906,15.4667120007029,0.759075110026716,0.729827754081295,0.175358544238461,0.240296455603823,0.117087650449431,0.439601113612375,0.156680731926385,0.0417742188135734,NaN,NaN,NaN,NaN,1.90759543141243,-127.844704273722,2.2221074296637,stable,stable,1,0.529871994695936,0.210935573800524,0.211387850159603,0.900622205377064,0.347961044244697
12,2.62517294685046,3,-0.788038355428763,-2.47096316941565,2.62517294685046,0.00626421856007548,0.00287421472425479,0.00689213642127876,-0.0412497011733168,-0.317823055795332,0.322453729163946,0.0208099484491496,0.197999608851081,0.200493005200235,15.4510660322378,1.60146621918991,1.47942540370048,0.033910837820158,0.0497123473615809,0.109897509615849,0.483985509182479,0.0270719254843226,0.00851796066488708,NaN,NaN,NaN,NaN,3,-106.299635778902,1.53957566018084,stable,stable,1,0.740144720200169,0.0855996453025478,0.066489194305227,0.958837575481497,0.351156662392956
13,1.96556482752975,2.67035675048828,-1.03175098687263,-1.65788495331125,1.96556482752975,-0.0488102727263489,-0.00770498951399634,0.0494146697553607,-0.0586132035651509,-0.14545537911656,0.159252838006547,0.0102714360182613,0.140626443468245,0.143213218476986,15.4625026134253,0.913492680226748,0.919279544485628,0.177162256740547,0.240285751998649,0.160043263251682,0.391505405818744,0.159507326152259,0.0366087387585545,NaN,NaN,NaN,NaN,2.02726066309477,-121.319262228342,1.51293002179389,stable,stable,1,0.552793264369998,0.167637538787485,0.184786936868525,0.897018518435558,0.32886966077703
14,2.66242716142109,3,-0.726558468620822,-2.52551249553299,2.66242716142109,-0.0265095786048673,-0.00877750880746888,0.0279249425903229,-0.0336446381372201,-0.328170642788111,0.331496265647453,0.0213977689950262,0.203360323006294,0.205437064515497,15.3427141402954,1.74861366408031,1.43080101294451,0.0632076559661154,0.240318933170266,0.128192918978213,0.530335822573516,0.00185475363483081,0.00785744800021256,NaN,NaN,NaN,NaN,2.96211416560549,-104.652706865072,1.71881447996675,unstable,unstable,0,0.751067989282058,0.0810734614884795,0.0523256656601605,0.943415056697462,0.343025369343016
15,1.71470742160771,2.38648462295532,-0.924906661153747,-1.43140874362586,1.71470742160771,-0.0390787812675846,0.00378099552947111,0.0392612668230866,-0.0467401016244615,-0.108777325219168,0.120268086894878,0.0077562076136996,0.121509789392585,0.12338911180904,15.4648485717253,0.829353574129109,0.734577220154156,0.176372368039453,0.240201871711215,0.146901646308288,0.433922548014196,0.159507461816637,0.0380645469311519,NaN,NaN,NaN,NaN,1.78867162897179,-121.8764556945,2.07845144488124,stable,stable,1,0.481933134790531,0.158347769220778,0.179742520213815,0.899525788310905,0.334710379418539
16,1.77053221146266,2.58254408836365,-1.00476674311338,-1.44328249926208,1.77053221146266,0.00628266727220815,0.00388646835454882,0.007387593946894,-0.054885598384,-0.109533972556153,0.124930424622916,0.00806483803977594,0.124136374719637,0.125121778003475,15.4071278939829,1.76230724761418,1.73416746152178,0.0153981104688111,0.0489273643253405,0.11796568482801,0.429090480919298,1.3237438687906e-05,0.0102917741460009,NaN,NaN,NaN,NaN,1.79698325918466,-123.928221238646,2.4387325498313,stable,stable,1,0.497166278657403,0.18405706452632,0.114182585347694,0.964828643479526,0.347570806743107
17,1.8346617132628,2.66729283332825,-1.00723727477293,-1.51501309371422,1.8346617132628,-0.0494637501141812,0.0154788751565293,0.0518291245485545,-0.0565778588696157,-0.123592714644707,0.138997300920724,0.00896416659481071,0.146049897332631,0.148215044600197,15.4521099277202,0.822999500599608,0.786884538410343,0.177797155875873,0.240259176980373,0.122837130911165,0.450356917843342,0.159395721416772,0.0370532209349635,NaN,NaN,NaN,NaN,1.90606506718967,-122.683382350962,1.82139382356378,stable,stable,1,0.518886132456787,0.19684400818196,0.202422846282879,0.898452333184128,0.345405719595038
18,1.83201963317638,2.53758096694946,-1.03708280586518,-1.48936713017325,1.83201963317638,-0.0461763447167703,0.014043432392563,0.0482646123445169,-0.0594838811627311,-0.118972811678448,0.136668504300278,0.00881405634046182,0.145063072794579,0.147310945416817,15.4576371375566,0.77660050890317,0.859563784312908,0.176819455214305,0.24025027645653,0.148874271342033,0.459995081158293,0.159514041787747,0.0367989229977551,NaN,NaN,NaN,NaN,1.87952489310621,-124.36494621675,2.24446751421299,stable,stable,1,0.518000757930397,0.167599812362106,0.184836443645345,0.898734695803293,0.333833657181319
19,2.62301448384921,3,-0.785943443015063,-2.466984571542,2.62301448384921,0.00762362353905189,0.00363681176495625,0.0084466582551273,-0.0416846476042518,-0.316820422532138,0.321755657498521,0.0207749134845344,0.200833344554055,0.203350787349898,15.33490350238,1.974469908314,1.56208426984136,0.0312582477888472,0.0746429572239454,0.113558779422109,0.504610155218034,0.0121674010563482,0.00614981852690144,NaN,NaN,NaN,NaN,3,-106.031594526481,1.77446704144425,stable,stable,1,0.740140686496435,0.0863702951473683,0.0594662085373884,0.956583664705784,0.949529431367951
20,1.8782844884055,2.78989171981812,-1.01343403279649,-1.55872342683613,1.8782844884055,-0.0564531811923018,0.00586114256310521,0.0567566265635643,-0.0578804884081057,-0.130352302198145,0.146371537879671,0.00944079509879655,0.157861920109774,0.160248875615344,15.4000470473494,0.981890599515206,0.852405012385189,0.176510286699957,0.240253826250425,0.134320765312893,0.466862836598474,0.159575535991184,0.0361061703852649,NaN,NaN,NaN,NaN,1.95533603544456,-121.682915799118,2.4914108454249,stable,stable,1,0.532925638697869,0.215517008604492,0.213362182106954,0.89733253398509,0.340301882083159
21,1.94721578335275,2.95600366592407,-1.08575100802427,-1.58802158299935,1.94721578335275,-0.0673718591417899,0.0118902138166273,0.0684130439962022,-0.0687543197517451,-0.138404419070513,0.159808734283677,0.0103064363532198,0.197302829137433,0.19985622551,15.467155858075,0.836538580030535,0.79748855620172,0.176689182374969,0.240292895935112,0.14596805913695,0.435760261636899,0.159446533431204,0.0342523575689487,NaN,NaN,NaN,NaN,2.01006102178809,-122.843348050567,2.13592123475685,stable,stable,1,0.559228787329401,0.23951966497785,0.227032327708479,0.898816624170691,0.335125307050244
22,2.63851472338041,3,-0.746469486524055,-2.49573806081463,2.63851472338041,0.00599171421172098,0.00579736617366207,0.00833727136097059,-0.0383993089351338,-0.323515831128428,0.327591501567724,0.0211405435458423,0.19347016267903,0.195964798243666,15.4208534639318,1.60029836866933,1.30189453252842,0.0312587051683433,0.0522103982219499,0.1132522812986,0.44864405092535,0.0126398308504276,0.00441575674038675,NaN,NaN,NaN,NaN,3,-105.373889448931,1.78902976948282,stable,stable,1,0.742796885883508,0.0828626869889198,0.0569410445173189,0.961567703192132,0.349665652756178
23,1.6787321526988,2.26128673553467,-0.802561393109905,-1.46337362597302,1.6787321526988,-0.0350319194022836,0.00255210726003175,0.0351247580557475,-0.0355370183564808,-0.113293519039465,0.119889610606619,0.00773240266169598,0.111267668086648,0.113192246429266,15.4494292158883,0.87500561135327,0.781658237732122,0.177046996256173,0.240184497084512,0.116387319125591,0.391278875271322,0.159501518760819,0.0371216628844243,NaN,NaN,NaN,NaN,1.75191981509009,-118.497538474994,2.1334709492072,stable,stable,1,0.4703003566722,0.137514320114957,0.166896942466098,0.898459857343386,0.348272302610849
24,2.68488488243509,3,-0.640226902705044,-2.57036836294173,2.68488488243509,-0.031207232844397,-0.00741792387862504,0.0320767357515301,-0.0281175431898898,-0.339436005608292,0.341830615697148,0.0220640355377286,0.201481978049722,0.203565215600915,15.4123746614861,1.68935774360073,1.37894018814247,0.0627103123586078,0.240254555408444,0.1240946346921,0.414250774288316,0.0018534710377884,0.00790217604957699,NaN,NaN,NaN,NaN,3,-102.185830974197,1.93417052180675,unstable,unstable,0,0.756682345102875,0.0767816363398843,0.0497662652730969,0.944536788642714,0.344846829025733
25,1.73974403718702,2.42491102218628,-0.940191413965269,-1.45136564086617,1.73974403718702,-0.0396759490910296,0.00442151175564406,0.0399215568644219,-0.0481858198843063,-0.111661421057398,0.123454568370483,0.00796428689438376,0.122206425980285,0.124177552040893,15.3827852267615,1.04681946279625,1.05475471444146,0.177636960435134,0.240219437585764,0.186409633783596,0.490743320127051,0.159535670544262,0.0390498324113962,NaN,NaN,NaN,NaN,1.79680657025774,-122.144595008979,1.94784777640167,stable,stable,1,0.48876725365805,0.161481523716644,0.181993595752792,0.894669151246994,0.317151273873957
26,1.85795823852221,2.590256690979,-1.03434002097061,-1.52812789568844,1.85795823852221,0.0061974931213686,0.00190367946655034,0.00648327976419161,-0.0581172260232836,-0.122822427154743,0.138411984986925,0.00893425968584655,0.131318776281547,0.132479942844906,15.4234332863691,1.80936746002582,1.5516704499849,0.0244722692992913,0.0534387456552171,0.111741310619445,0.452725162042017,0.000346163551055483,0.00593398508364172,NaN,NaN,NaN,NaN,1.89015622586425,-123.159855511628,2.06539412696512,stable,stable,1,0.521951518841571,0.16595575309288,0.101885115080552,0.961355710343127,0.350337195280247
27,1.71836609013227,2.66873741149902,-0.835273585626301,-1.47124434039097,1.71836609013227,-0.0791469593357257,-0.0173732083887433,0.0810312874253502,-0.0438683362979054,-0.119017219589981,0.130722483202909,0.00843128372499786,0.18940829435422,0.191559213665383,15.4590690657554,0.767617725426844,0.91703418623742,0.176491698975594,0.240250755797717,0.146077459756967,0.410406478199943,0.159455590187644,0.0354029082085818,NaN,NaN,NaN,NaN,1.77620387229689,-117.832865156267,1.79193563322149,stable,stable,1,0.496542800101681,0.228689283335501,0.22095650599893,0.898517599777698,0.335076684552459
28,1.70953940777552,2.36087465286255,-0.960847265243316,-1.40262516755069,1.70953940777552,-0.0316980235921796,0.00733641743486921,0.0325359450520348,-0.0501651988053344,-0.104250789221121,0.117458921909345,0.00757730677327154,0.123136856016444,0.125022237609188,15.398650502666,0.984838145752305,1.06903468921711,0.176539288626213,0.240219052542045,0.17316330136412,0.508225934943784,0.159551807581872,0.0348082773327094,NaN,NaN,NaN,NaN,1.77693740749085,-123.63065316624,2.30054706914414,stable,stable,1,0.480881622928642,0.152515353404122,0.175078681917018,0.895592783412134,0.323038532727058
29,2.61367859641711,3,-0.509106428490636,-2.5314426695747,2.61367859641711,0.00668845776251809,0.0036804350078116,0.00763420389351199,-0.0223683908104268,-0.333748701249499,0.335277233681188,0.0216379269588339,0.199419717638496,0.202048634266903,15.4271683247905,1.59228684845363,1.54527410698776,0.0300896814575317,0.047294312777023,0.105964008414707,0.451917758838235,0.0101156974507897,0.00902401338761908,NaN,NaN,NaN,NaN,3,-100.208461528465,1.84451363833625,stable,stable,1,0.737390685897943,0.0883219198532943,0.0607704768593406,0.960302894621337,0.352904885149019
30,1.86262569216644,2.66839098930359,-0.941704301799048,-1.59489234684632,1.86262569216644,-0.0345727245556849,0.0077727453876844,0.0354357002762049,-0.0483262209715447,-0.134496892481399,0.144603063572,0.00932906174923659,0.113090909157126,0.115305644071986,15.3752046087097,1.10460381385646,1.06150005441355,0.17733621723277,0.240285995403798,0.124415035716842,0.450802190143302,0.159539787976006,0.0360912437348428,NaN,NaN,NaN,NaN,1.90894849737311,-119.745808657761,1.70267061992969,stable,stable,1,0.519761313392114,0.187793736906496,0.19670690320853,0.894312503847208,0.344704428570293
31,1.90357059037604,2.73284268379211,-0.948503930594595,-1.62989639945006,1.90357059037604,-0.0568549238738463,0.0103903121575547,0.0577965479542878,-0.0510742106822519,-0.142085104400509,0.153895338905407,0.00992566998035107,0.160416824566463,0.162950979033856,15.4601240975491,0.831361422945695,0.874889594342676,0.17686633592625,0.240246852365609,0.140692700325089,0.42860040414095,0.159543426393766,0.0355911678938017,NaN,NaN,NaN,NaN,1.95935225919259,-119.13516242978,2.29103654344715,stable,stable,1,0.540209019907049,0.197182254810235,0.202159785264955,0.898160574043895,0.337469910966627
32,2.62268674850464,3,-0.645804965296565,-2.5094680109403,2.62268674850464,0.00514340407842972,0.00283694964696047,0.0058739159692148,-0.0306720407159399,-0.327495071914663,0.330219338825709,0.0213237883638275,0.195217350553147,0.197844766098004,15.410358695885,1.95682785986926,1.9613040473691,0.018041156782475,0.0505719496122648,0.134183165191857,0.402652189337513,0.000446279135334211,0.00709216905579946,NaN,NaN,NaN,NaN,3,-103.01941117063,2.34922796620829,stable,stable,1,0.738952086154171,0.0859723661808124,0.0543607365566034,0.960194099480461,0.340363037692508
33,1.8999507621843,2.67935132980347,-0.830210199941485,-1.68867757718005,1.8999507621843,-0.0625735715556405,-0.00933638112272197,0.0632662617016177,-0.0402327226609145,-0.151545098760409,0.159042604923464,0.0102614920300127,0.149386705106267,0.151883032560246,15.363889316282,1.2041990823928,1.08718144375994,0.177646972303437,0.240293643164266,0.150222769543704,0.480763505086612,0.159485958464928,0.0350816193052765,NaN,NaN,NaN,NaN,1.93692079365451,-115.089103932968,2.3570017112016,stable,stable,1,0.537030143094529,0.186963942359609,0.195817966097046,0.893172809714224,0.333234324647243
34,2.62188940308105,3,-0.553009092833181,-2.53119075236733,2.62188940308105,-0.0199835362092151,0.00506217897532364,0.0206147368502055,-0.0247799640906965,-0.339340155155416,0.341155805756693,0.0220216276872404,0.20340957729362,0.205368237091868,15.3899654682173,1.68896486469466,1.40031357178391,0.0620369399644584,0.240327952665265,0.133670198331362,0.447729261421918,0.00191183253947831,0.0111152995085777,NaN,NaN,NaN,NaN,3,-101.157933097739,2.12682427566635,unstable,unstable,0,0.740244154906655,0.0888542527293007,0.0582041820824879,0.944708628016868,0.340591022963839
35,1.79117664431228,2.6533944606781,-0.808365876038041,-1.57079813610043,1.79117664431228,-0.0591650798319212,0.00174314951201321,0.0591907530087162,-0.0403236700950848,-0.134126781040243,0.143162238556919,0.00923374213033406,0.18156258182725,0.183807833444067,15.4439191913502,0.923985189105734,0.860506693518388,0.176645587466955,0.240251862435601,0.129293123496116,0.407749982769653,0.159537501588983,0.0354441571542187,NaN,NaN,NaN,NaN,1.86137587595629,-115.841095627455,1.80286567223544,stable,stable,1,0.514408671838755,0.204850646733907,0.20670472872183,0.897656198617333,0.342536389557282
36,1.97090024749438,2.64501762390137,-0.887726626557352,-1.74517726307418,1.97090024749438,0.00871460898467379,0.00398975638937543,0.00958449611624519,-0.0436517532438132,-0.1596227233708,0.167115205548209,0.0107855382107196,0.137603025011252,0.138938968828619,15.4344470020467,1.62447384184766,1.43792548571148,0.0318527535371462,0.0507536840560923,0.109008030379608,0.447932951657473,0.0122552940744469,0.00850991858272276,NaN,NaN,NaN,NaN,2.00134863438598,-116.022448666907,1.75674632572135,stable,stable,1,0.553361193097558,0.153433567312884,0.100601453602414,0.960011914229177,0.351551986497952
37,1.81554562380525,2.49459266662598,-0.815602788169403,-1.61051685057213,1.81554562380525,-0.0455619542487265,-0.00856652242148408,0.0463602953114067,-0.0371498269178257,-0.13693655180671,0.143125402327972,0.00923044716875997,0.126450966543844,0.128782247669633,15.4603270668248,0.847809701786372,0.695080290972043,0.176078901243483,0.24022936452353,0.106358774969068,0.378957544010226,0.159463721137281,0.036299407954587,NaN,NaN,NaN,NaN,1.84847057739295,-116.145839673518,2.0929334995581,stable,stable,1,0.509901949215326,0.161284972108422,0.180843532925715,0.899837842292299,0.352729433347081
38,1.93522032912897,2.67762184143066,-0.768328821953111,-1.76415274577286,1.93522032912897,-0.0537739986335928,-0.00943239878469506,0.0545949913076205,-0.0336881017832119,-0.165430824932307,0.169803342612974,0.0109524395937789,0.134731206248649,0.13747057213477,15.4509371988992,1.01203096784883,0.752749888586507,0.177507580666999,0.240258324665214,0.153562536658556,0.416961526447354,0.159493264438954,0.0360475058837466,NaN,NaN,NaN,NaN,1.9993932608471,-112.620106358339,1.75192399021093,stable,stable,1,0.543552868861345,0.177049422007612,0.190223732468495,0.897380074365937,0.331749983707308
39,2.6348158288002,3,-0.621701006000407,-2.52721422301456,2.6348158288002,0.00713727099729357,0.0028750663608495,0.00769458536037494,-0.0293557747260613,-0.331731601792544,0.334213912883793,0.02157737654584,0.196624025078334,0.199329815484473,15.400232735821,1.82955656578002,1.66720538910543,0.0225573565754264,0.0563741884688815,0.122474470533897,0.442288704256583,0.000180196795896696,0.00527078174777857,NaN,NaN,NaN,NaN,2.9987372183553,-102.731971335258,2.14378281830852,stable,stable,1,0.742483517443615,0.0835771125026901,0.0521430028747401,0.96124676349533,0.345566901984935
40,1.90250637966233,2.68524503707886,-0.294549869744902,-1.86684498862565,1.90250637966233,-0.0429320700909264,-0.0143911127386595,0.0452798715562337,-0.00716327152416047,-0.183857368053938,0.184120458861918,0.0118736166558545,0.129869779995604,0.132838599737787,15.4746488760435,0.878809463675465,0.530891186136787,0.175535935883573,0.240237593542471,0.1141790044701,0.385993661528263,0.156734157438781,0.0404161433348674,NaN,NaN,NaN,NaN,1.96262077332345,-97.9255988407311,2.25718750452412,stable,stable,1,0.53390275452418,0.184417507704027,0.195006909545261,0.901155812666831,0.349253775791067
41,1.86671450105654,2.61099314689636,-0.252386079803561,-1.83244355130104,1.86671450105654,-0.0461360874097049,-0.015821721071654,0.0487736139643676,-0.00673659310422423,-0.177587221388551,0.177882704985009,0.0114731624073877,0.143688805472834,0.146632463244261,15.4442496868155,0.94748277956065,0.675282931897863,0.176507547542096,0.240229066724116,0.14295937838846,0.38212616594242,0.159624416367033,0.0349657631224509,NaN,NaN,NaN,NaN,1.94919332297993,-97.076725643542,2.39096314595955,stable,stable,1,0.52711702626393,0.17640452454076,0.18950172273009,0.898995924210349,0.336462498494018
42,2.62474677920341,3,-0.636372083487138,-2.51408973498732,2.62474677920341,0.00980301920268953,0.00101487351899393,0.00985541240881653,-0.0301577723450455,-0.328603470149534,0.33124130673917,0.021386887495669,0.191423909184361,0.194011232242599,15.3898204787693,1.91891987063697,1.78348459782559,0.0273881828339091,0.0586297250918589,0.119186641191529,0.467589372032505,0.00179252997039176,0.00592528421915645,NaN,NaN,NaN,NaN,2.97766096785849,-102.83550377438,1.96158249063403,stable,stable,1,0.738734720902764,0.0862388002875147,0.0546946089663156,0.957215587759411,0.347028159470431
43,1.84201937224589,2.7577428817749,-0.245156384242977,-1.80841082731419,1.84201937224589,-0.0478229391163141,-0.00922890275492327,0.0487052990113243,-0.0063684273426853,-0.174306803522423,0.174565084241924,0.0112590423096577,0.159299517022222,0.1621672894414,15.4583151378706,1.02901714344391,0.635303707216085,0.177093708327665,0.240307326692033,0.131677072848946,0.375116652408038,0.15942516929033,0.0376187334165262,NaN,NaN,NaN,NaN,1.87761184680711,-96.9149867627548,2.46393456853063,stable,stable,1,0.523638623820518,0.21496709446277,0.213515426897556,0.89837633915241,0.34147685651158
44,2.48982649464761,3,-0.594194544321631,-2.38626477141751,2.48982649464761,-0.0142305694525705,0.00931546917153256,0.0170084412228224,-0.0282740464431835,-0.302109003554367,0.304708465981238,0.0196667875243026,0.214249015366889,0.216051557429601,15.4253689290237,1.5198210281538,1.39862394312352,0.062124546308254,0.240480059034735,0.126592456982824,0.426295131973409,0.00190639354681137,0.00704599279712661,NaN,NaN,NaN,NaN,2.70268226585959,-102.84402520654,2.43342639637731,unstable,unstable,0,0.70716404339195,0.117907252928472,0.0741538169768432,0.946007087785837,0.343736685785412
45,1.68474594833089,2.46943616867065,-0.224507073633006,-1.65785294914777,1.68474594833089,-0.0368823533999439,-0.0136720116788776,0.0393348687002476,-0.00481229304699184,-0.144769975723194,0.144947232092742,0.00934858149098391,0.11638675608458,0.118907487797621,15.4612678327532,0.88079947025806,0.625198265701299,0.175950539692635,0.240206720613434,0.159991895144988,0.40434753383808,0.159577750005833,0.0353185526575493,NaN,NaN,NaN,NaN,1.74484723470437,-96.8322370152764,2.25189850540562,stable,stable,1,0.473047083781094,0.183766692171493,0.194026569807224,0.900191890799716,0.328892491046672
46,1.69209192911784,2.41049599647522,-0.233165474033093,-1.66499434763157,1.69209192911784,0.00577336265484831,0.00437159274941818,0.00724172213711371,-0.00488683607047727,-0.14495084940539,0.145128457533731,0.00936737690568107,0.109724092419487,0.110939190224197,15.4288858043075,1.66380045835733,1.54875143581611,0.030879733900666,0.0551908596312648,0.111565414133677,0.430730126812628,0.0107114381998061,0.00576906099756056,NaN,NaN,NaN,NaN,1.71876069037497,-96.5690723186371,1.7919582300517,stable,stable,1,0.473412352476263,0.162968564213882,0.104639618090992,0.959318653881161,0.350415371496144
47,1.78275265255753,2.51132678985596,-0.143837577435204,-1.76523061138295,1.78275265255753,-0.0351056256607488,-0.0208673660411785,0.0408393427778797,-0.00275874623808384,-0.163844554679019,0.163910547298711,0.0105714009869069,0.120774943047058,0.12356829709743,15.4660664124302,0.858074410201288,0.641948245283625,0.175835988687992,0.240246371881948,0.124354971555754,0.358110681573947,0.159501745040531,0.0365618154950208,NaN,NaN,NaN,NaN,1.8330973949862,-93.5355183886098,1.60142126988174,stable,stable,1,0.50011436676816,0.171416393734758,0.187034706337866,0.900296113362908,0.344731123752998
48,1.69319187500039,2.61822319030762,-0.200226920968763,-1.65834091128435,1.69319187500039,-0.0575510549200072,-0.0250957215868355,0.0627847048600982,-0.00602068783033047,-0.149804856923087,0.150115770623555,0.00968392783893893,0.16989002296899,0.172397955205021,15.3796918372375,1.07086788696765,0.865867479152385,0.177138421294458,0.240221898809897,0.130352393437072,0.445220296667662,0.15665955254077,0.043119923405299,NaN,NaN,NaN,NaN,1.76093856199151,-95.8152911333806,1.7348180281921,stable,stable,1,0.485997424374441,0.219642575168478,0.217091985044366,0.896213582904685,0.342065602916857
49,2.61745475530624,3,-0.671515982727544,-2.49722981535724,2.61745475530624,0.00612539892736968,0.00309301542325874,0.0068620154785557,-0.0324518263229339,-0.325845331420914,0.328809389186289,0.021228364500038,0.196185848431961,0.198645761886854,15.4234588662022,1.9322907802732,1.73019264040016,0.0150274725113386,0.0527276772928618,0.120830787954684,0.427118526693592,0.000190756297179843,0.00928972383606483,NaN,NaN,NaN,NaN,3,-103.690253195533,2.46588878668597,stable,stable,1,0.737717087125702,0.0873307162271637,0.0558612917077553,0.963709608296183,0.346297427575696
50,1.65197915974117,2.33254671096802,-0.163821632595238,-1.62715354483283,1.65197915974117,-0.0513190004665488,-0.0255995131079973,0.057349584830687,-0.00380655829867955,-0.141283003822381,0.141432089731775,0.00912511609070828,0.139511976015748,0.141803749884796,15.3417814043256,1.1897111869838,0.886524047537554,0.176446836846745,0.240196616533747,0.150712434794751,0.443155922534442,0.159496078317876,0.0376505249887843,NaN,NaN,NaN,NaN,1.72627812567413,-94.411640590645,2.00458188761322,stable,stable,1,0.468888525907939,0.163641789578332,0.182763319661977,0.89546330473396,0.333016695646777
51,1.58969872743905,2.34776949882507,-0.137717030048874,-1.56093656171191,1.58969872743905,-0.0570262038565167,-0.0352084537734717,0.0670195728381172,-0.00382465688852043,-0.132762443487941,0.132965569814821,0.00857612442307176,0.164597497823294,0.166811893510964,15.4424107076154,0.86185464960758,0.755209262497962,0.177513140852921,0.240188549592995,0.149060726085002,0.416201314785655,0.15948951718187,0.0343546295899027,NaN,NaN,NaN,NaN,1.64198518080473,-93.7945426045898,2.26363821051,stable,stable,1,0.457282039352606,0.182852845248843,0.193088529586061,0.898537927406996,0.333750788406666
52,2.61423825661341,3,-0.629007058349518,-2.50430019681503,2.61423825661341,0.00594525971814179,0.00479373811896913,0.00763714856929058,-0.0298238363823044,-0.326281866525306,0.32885068781657,0.0212221390331356,0.197248213862276,0.199778014998936,15.4326191174712,1.61895615777161,1.37547635296476,0.0334655455254095,0.0521831264262424,0.106156394383454,0.375341772580759,0.0248113554817157,0.0053124531385899,NaN,NaN,NaN,NaN,3,-102.899260755177,1.50352091597433,stable,stable,1,0.737085804763364,0.0881965361663519,0.0658769919441013,0.959739543224367,0.35281938027402
53,1.71469528861597,2.62650990486145,-0.145381181967962,-1.68381911655163,1.71469528861597,-0.0656046594260189,-0.0334166945202228,0.0736250420105946,-0.00410690500171501,-0.155122960511599,0.155338126693462,0.0100192578253925,0.184407790009981,0.186973007083055,15.4554789578263,0.937757594272683,0.738131166040087,0.176567467810991,0.240246597706699,0.15539372610784,0.386117258170928,0.159517033082785,0.0350621581469864,NaN,NaN,NaN,NaN,1.76767167051157,-93.7767495596924,2.26593802028833,stable,stable,1,0.49464667838087,0.218656213023841,0.214840062652023,0.898548568692047,0.330936121729849
54,2.61204547339706,3,-0.572283041737488,-2.51399625216662,2.61204547339706,-0.0233853212069333,0.0155489169218473,0.0280827716829011,-0.0257452392860059,-0.341456718725608,0.343415265656708,0.0221661758710774,0.199528881604199,0.201552737781646,15.37744191792,1.68091079115859,1.40628387794396,0.0626030906583788,0.240312993629913,0.123058874913473,0.486849728343039,0.0019357298202285,0.00710966075373399,NaN,NaN,NaN,NaN,3,-101.106544404973,2.15686744078818,unstable,unstable,0,0.736856007128879,0.0924382766275266,0.058908621524238,0.944441925127862,0.345307166705123
55,1.62758622769596,2.40043044090271,-0.155744106325428,-1.6044925145348,1.62758622769596,-0.0398170988384619,-0.00769901868061589,0.0405546082283668,-0.00358114616413919,-0.13801723298563,0.13816389384561,0.00891113052261441,0.143625680450099,0.145957227020425,15.4520985226949,0.847576785381251,0.675639683277611,0.176877451994675,0.240207790869335,0.112105346615709,0.414599219486586,0.159527096985695,0.0365881123814957,NaN,NaN,NaN,NaN,1.6954412846166,-94.4207914550518,2.01224057167974,stable,stable,1,0.46321443945634,0.181324959480053,0.1930006758204,0.899593144606057,0.350175401504129
56,1.71654308597247,2.42091464996338,-0.093240405701342,-1.7032844565636,1.71654308597247,0.00341715703214777,0.00511356505584001,0.00615024469128384,-0.00165436182717012,-0.151816419075074,0.15185674581209,0.00980010793200808,0.116092506001691,0.117334228080379,15.4459564788592,1.62298317971584,1.39002855829973,0.0331780190343329,0.0504944896206695,0.101400216605676,0.382823422243559,0.0198789999354285,0.00541943401881413,NaN,NaN,NaN,NaN,1.73280982852964,-92.1431804697514,1.69378950263322,stable,stable,1,0.481211668542067,0.159611146758024,0.106572502416796,0.959737326826997,0.354933237064144
57,1.59334804736027,2.25051832199097,-0.185183198103334,-1.56644640092597,1.59334804736027,-0.0505895543391193,-0.0149683010846617,0.0527574927909941,-0.00423099506739219,-0.131022404116976,0.131191138430554,0.00846282933081864,0.120843960544446,0.122902649693451,15.3694088649874,1.05593316005448,0.843225466539004,0.176836078113527,0.240224250843596,0.122094026366772,0.446508017990946,0.159478234528396,0.0382696895347181,NaN,NaN,NaN,NaN,1.65239533729994,-95.8334835366937,2.01678990192296,stable,stable,1,0.449473342568096,0.157535518803589,0.179316777368004,0.896660000305716,0.345735988281435
58,1.60527851549136,2.39813041687012,-0.0892765064583732,-1.59071994990949,1.60527851549136,-0.0388582711986808,-0.0175138391003253,0.0426227615316313,-0.00175672465914156,-0.133643137534623,0.133697094878517,0.00862763224477635,0.120891315972947,0.123277416971934,15.3667907980447,1.19141053422567,0.952050388451956,0.176841249798898,0.24016904246029,0.152989303468927,0.457013085842189,0.156704207981981,0.0410249399987608,NaN,NaN,NaN,NaN,1.68060545220575,-92.4282145747537,2.4838822910676,stable,stable,1,0.452729754192082,0.186205850757687,0.19628798511282,0.89473789642237,0.33200475401381
59,2.53645065317186,3,-0.521052122663572,-2.45101165936694,2.53645065317186,0.00805757115954672,0.00635026075478345,0.0102591551623368,-0.0230949582209544,-0.315086772137919,0.31679133697757,0.020460529312387,0.209352154209262,0.211921030218446,15.396548737032,2.14510978298208,1.91936375219178,0.0204185195518643,0.0533708107197003,0.148528777577975,0.408546905651219,0.0092670610935854,0.00891435459513216,NaN,NaN,NaN,NaN,2.78982386220964,-100.41262924442,2.12856893938642,stable,stable,1,0.718771046889518,0.106179448149427,0.0710679461981664,0.95785559101913,0.333987209965345
60,1.68059493871343,2.22570538520813,-0.0795943572900212,-1.66820285720599,1.68059493871343,-0.0390282459953278,-0.0258119669520327,0.0467916832717595,-0.00144920773979334,-0.147744377938034,0.147782045015441,0.00953002976304992,0.119076156854312,0.12146062687444,15.4554298637313,0.836566390323355,0.448498369728784,0.175231446934251,0.240181169753417,0.130526363212695,0.400165478967798,0.159569158493788,0.0366733394380031,NaN,NaN,NaN,NaN,1.72864210057146,-91.9462754292346,1.76401355006413,stable,stable,1,0.47245077569847,0.131228325727796,0.162992381229555,0.902287339132465,0.34198828301658
61,1.57383638052713,2.31642413139343,-0.197455822387104,-1.54128053244731,1.57383638052713,-0.0566147493828358,-0.0385013286701007,0.0684659196757366,-0.00527932142570068,-0.12951504230211,0.129779387684491,0.00836951093100819,0.16597102457908,0.168067449470169,15.4704584703227,0.873311243815942,0.525431702308246,0.176662081397511,0.24021903403874,0.141260838516344,0.380634646757777,0.159537460175372,0.03819643123265,NaN,NaN,NaN,NaN,1.6541677253945,-95.777639022521,1.52650379434483,stable,stable,1,0.453303191367936,0.179634329218802,0.192575746744329,0.900678836153126,0.337217405103847
62,2.60905902822812,3,-0.545746645134403,-2.51918421667302,2.60905902822812,0.00967655571897206,0.00646528932985169,0.0116376843358576,-0.0245277967476345,-0.330465278982861,0.332317071765781,0.0214439581290522,0.19892025987789,0.201577014402589,15.4596814220564,1.43036882506531,1.5058806480402,0.0285237129772025,0.0519463113664873,0.0999772939864817,0.428303520558839,0.00739250141094466,0.00585193047564268,NaN,NaN,NaN,NaN,2.96888331606625,-100.576107342626,1.89677159380988,stable,stable,1,0.736064477074684,0.090095294110246,0.0594707073672052,0.962667611936998,0.355565647117119
63,1.55517504977531,2.14762854576111,-0.0855054543803859,-1.54304986079885,1.55517504977531,-0.0331306229462036,-0.00787699812933776,0.0340541521159036,-0.00140219731279711,-0.125704493146673,0.125742937828039,0.00811030258585081,0.109833560517337,0.112011616856504,15.4580215328045,0.94288366866991,0.657112353466174,0.177261285058843,0.240181057696663,0.155666896161218,0.382139990462167,0.159541859846465,0.0369188774948883,NaN,NaN,NaN,NaN,1.60300708299886,-92.1234906695166,1.79434018876336,stable,stable,1,0.437115669978051,0.139545297818053,0.168059718317705,0.898797960153795,0.330814712817237
64,2.67794263805493,3,-0.626139301965849,-2.56681219122394,2.67794263805493,-0.0245525099891746,-0.00865499843122033,0.0260333390984127,-0.0279203211112888,-0.337425016544406,0.339838416847654,0.0219323239511841,0.199420047178432,0.201488518921576,15.4264916402223,1.66226704206063,1.27850491440019,0.0637355346092199,0.240376547040852,0.115721492907197,0.429990001650891,0.00189347062960172,0.0116984447900868,NaN,NaN,NaN,NaN,3,-102.201792877698,1.55855960748127,unstable,unstable,0,0.754415740598964,0.0772356852723491,0.0514369335891226,0.945026167323198,0.348568225374579
65,1.47674429700488,2.31309723854065,-0.131960105605981,-1.4494795325294,1.47674429700488,-0.0548823264616468,-0.0122014891781885,0.0562222918067934,-0.00317289353439445,-0.114738904150552,0.114903804798964,0.00741093692948351,0.14514745722328,0.146975062617031,15.4130658763276,0.901087045391701,0.666789341443971,0.177099611366665,0.240214188394512,0.127520673854476,0.472721544891663,0.159585906420597,0.0360622501072388,NaN,NaN,NaN,NaN,1.55228808798252,-94.2268777224065,1.79310084280421,stable,stable,1,0.423193491724708,0.198486832010127,0.203132714219883,0.899131165562959,0.343324144953566
66,1.58159260551135,2.22038888931274,-0.125377005572966,-1.56642438764163,1.58159260551135,0.0024920354829661,0.00380621142039669,0.00454944900236504,-0.00224851632465333,-0.128616545062005,0.128671750293174,0.00830550624555873,0.109569851660616,0.110596523138088,15.4122710612548,1.72523908957063,1.59605135469828,0.0216520353678324,0.046105938436925,0.109756333316515,0.381816536152802,0.000284463777736073,0.00651144539563306,NaN,NaN,NaN,NaN,1.60696450398557,-93.5145725727472,2.19145659401885,stable,stable,1,0.443877332763977,0.144563229505748,0.0892321643747939,0.9630781288254,0.351219407414882
67,1.64146949806992,2.47970032691956,-0.107215630669621,-1.61578074919631,1.64146949806992,-0.0566896632969484,-0.0199145931610542,0.0600858464656335,-0.00276490514972719,-0.143165058800862,0.143321656580405,0.00924938311980227,0.169676439868377,0.171989685132938,15.3352657265289,1.21520830467473,1.05115713654997,0.176630949508238,0.24023752363233,0.142003748902965,0.419918325533995,0.156703127615017,0.0419016354258756,NaN,NaN,NaN,NaN,1.70472744872138,-93.0615211949791,2.33740178854639,stable,stable,1,0.472123136511899,0.199617675009868,0.204653397838166,0.893877368207687,0.336887222709793
68,1.62048447132111,2.2805597782135,-0.151949160044375,-1.59777519070881,1.62048447132111,-0.0455007101899284,-0.0185276996812274,0.0491283042986994,-0.00342241979742199,-0.134499352191187,0.134629397153214,0.00868354056988701,0.114429112360216,0.116658061249469,15.4549916043708,0.93527529266933,0.6774809676682,0.17658298016721,0.240176352396676,0.129771443520423,0.427184837145835,0.159426334979005,0.0362467505629682,NaN,NaN,NaN,NaN,1.6346567991892,-94.1375227104005,2.15195265395058,stable,stable,1,0.455460804602189,0.157523799838884,0.17855106535124,0.899036853585172,0.342323802879812
69,2.62044168829918,3,-0.38483950376343,-2.56105704425339,2.62044168829918,0.00492152646420545,0.00289993929575881,0.00571236121555358,-0.0157632318358419,-0.340972251527338,0.341812520348694,0.022060746039704,0.196213510427639,0.198988868311468,15.4366547898524,1.6116680287393,1.50744132991163,0.0280495682475316,0.0520533173192678,0.104364999426287,0.421077610503542,0.0042010433011996,0.0080447459457305,NaN,NaN,NaN,NaN,2.97762147861884,-97.4745863886534,1.94533649525062,stable,stable,1,0.738582223875408,0.0864478863555362,0.0566612243314943,0.961467928058263,0.353615555810539
70,1.70727447561316,2.50299382209778,-0.0837377419751782,-1.6895202099501,1.70727447561316,-0.0470817987490927,-0.0148692935435798,0.0493739978524649,-0.00176080387420291,-0.152032636126186,0.152100043820671,0.00981075323214786,0.140505965943028,0.143031292357534,15.4283283540841,0.990225912773112,0.684423223422461,0.17635027842767,0.240202147299961,0.138439548112816,0.375782877044328,0.156632449870701,0.0402761660303979,NaN,NaN,NaN,NaN,1.74106956136438,-91.9626622500687,2.44970375464371,stable,stable,1,0.483879451968348,0.188088752565325,0.19711355226046,0.898666903287486,0.33847131194986
71,1.63483424819246,2.41309833526611,-0.199306828144014,-1.60849058352501,1.63483424819246,-0.0410709995968943,-0.0290695470786426,0.0503176467578275,-0.00439245138514155,-0.137594198048719,0.137759156512611,0.00888704518077236,0.138686775020981,0.141032933639965,15.3995389593042,1.06328401059303,0.817141344186563,0.177135987279414,0.240201848673166,0.157117133154782,0.444087676355379,0.159537841026908,0.0375648555435492,NaN,NaN,NaN,NaN,1.67774962146967,-95.9395937551425,2.05978094275059,stable,stable,1,0.464162386245981,0.184334321497175,0.195166247491757,0.896657235715596,0.330170163042319
72,2.61695919354757,3,-0.605316774260242,-2.5119111644986,2.61695919354757,0.00521145038097114,0.00571270658418281,0.00773267299129414,-0.0285556132063636,-0.32852339694065,0.330947182294287,0.0213651625715979,0.198500487736121,0.201024529964559,15.4013447428469,1.83910558727788,1.60564142777823,0.0331313623069029,0.0521410382139238,0.115203578364065,0.385756795187413,0.0267580119725802,0.00829232864097793,NaN,NaN,NaN,NaN,3,-102.28205700878,1.60527643084528,stable,stable,1,0.73806069093893,0.087601838166868,0.0674689448987949,0.956368449442536,0.348798409615971
73,1.68828954165046,2.5511474609375,-0.167832374195949,-1.66323169127739,1.68828954165046,-0.0492731547497078,-0.00530220569058535,0.0495576145932583,-0.0040230015532548,-0.146118244507223,0.146279268566582,0.00943330005536587,0.129382913267396,0.131848177459312,15.4703891502198,0.859112496324677,0.454838687281561,0.175407954512624,0.240183101333569,0.111023706367834,0.378093943447885,0.156789100842871,0.0411687735517096,NaN,NaN,NaN,NaN,1.730743683828,-94.7490683234343,2.43470875028891,stable,stable,1,0.476580179931986,0.203228594515014,0.206591664637775,0.901972120586782,0.350656130503185
74,2.64507214341845,3,-0.593994594528516,-2.54217988738446,2.64507214341845,-0.0222007616968918,0.00315005196279244,0.0224231275091248,-0.0279279368541741,-0.339920596902586,0.342232965540689,0.0220887872850811,0.203870674913561,0.205947695707876,15.4166229999608,1.73327401306099,1.30332120128696,0.06258533501713,0.240412830891727,0.118652280152934,0.410063537860326,0.00189682702742525,0.00709241133012269,NaN,NaN,NaN,NaN,3,-101.440236798872,2.10349918878517,unstable,unstable,0,0.746542110719828,0.0839696744408554,0.0538038975644236,0.944848370092987,0.347265653265363
75,1.66290105200138,2.62758660316467,-0.196425239996464,-1.62822317899288,1.66290105200138,-0.0581695687474013,-0.0285567200011062,0.0648011187054686,-0.00558461977329114,-0.144260625034038,0.144546739154074,0.00932412202609803,0.176854170020379,0.179260675320331,15.4483532474922,1.01949002251932,0.724085152645613,0.176385433116556,0.240255756379334,0.161280743213986,0.365926992859555,0.159510248476798,0.0347198446867141,NaN,NaN,NaN,NaN,1.72844746755899,-95.0560971705178,1.80190857216392,stable,stable,1,0.479292415597768,0.228934454107743,0.220879514300008,0.898107764208283,0.328319669682673
76,1.73919031341871,2.66577339172363,-0.225992462779073,-1.70026554881629,1.73919031341871,0.00456074420706641,0.00698189308446485,0.00833949751275147,-0.00681815734702423,-0.155709766343815,0.156094999933976,0.0100778411647002,0.182137303320007,0.18328326526925,15.4193516200784,1.95200686964352,1.90495436899699,0.0173771405048641,0.0501925464822903,0.122863060491355,0.373338364236479,0.000345236013281033,0.00711337090106097,NaN,NaN,NaN,NaN,1.80133462105751,-96.2777836497926,2.34479876208792,stable,stable,1,0.500440736632172,0.210010100495946,0.128746178853351,0.961006734301107,0.345394195337176
77,1.68853650612085,2.54196238517761,-0.137706914404962,-1.6611136472147,1.68853650612085,-0.0568561891701987,-0.0227416216476011,0.061235672627318,-0.00350808764126346,-0.151105510334296,0.151268661895734,0.00975603949891352,0.177449974270264,0.179833575633467,15.4540666873081,0.974489625537623,0.510797820561216,0.176645646712353,0.240241571750286,0.111730508338551,0.336547897094635,0.159567998266586,0.0370606599329351,NaN,NaN,NaN,NaN,1.75923009576763,-93.8331549635916,1.73253028761755,stable,stable,1,0.48624311675892,0.203247362769446,0.206344131614349,0.900007060995904,0.350341996293977
78,1.80446230554256,2.53008365631104,-0.208808354068856,-1.77519665578949,1.80446230554256,-0.0479662988119291,-0.0144228045495179,0.0500877541200328,-0.00531316463348734,-0.16763044355538,0.167832142946991,0.0108228740888256,0.144576345504181,0.147269755955923,15.4482728132285,0.803695919151839,0.482208208126421,0.176287950179416,0.240268207820945,0.10972415788819,0.438376012949313,0.159519182870284,0.0362527094583932,NaN,NaN,NaN,NaN,1.84421771642335,-95.6415120879709,2.33687284660587,stable,stable,1,0.510643899335868,0.172447558844912,0.187548753355378,0.901752492481677,0.351233707605249
79,2.61899281819661,3,-0.406437315575338,-2.5498210293999,2.61899281819661,0.00963419609707466,0.00361432722648286,0.0102898540192261,-0.0180127309389299,-0.337986188369222,0.339118176029374,0.0218884300955664,0.201115906438746,0.203735724066711,15.4290795140271,1.69528397673152,1.39148572421995,0.031250730857355,0.0495445531196139,0.125732093090126,0.411611810595266,0.0170117196827034,0.00461568190453362,NaN,NaN,NaN,NaN,3,-97.5958361626102,1.72999396016785,stable,stable,1,0.739145229665773,0.0876130891426199,0.0618070475724624,0.960121444063847,0.344119069737722
80,1.76298392711043,2.62497901916504,-0.226604669170195,-1.72336838038486,1.76298392711043,-0.0635481869362077,-0.0170043417720198,0.0657838863398846,-0.00707347575164795,-0.160031852146092,0.160438908465248,0.010347594674245,0.169586584226512,0.172188591427209,15.4610041552994,0.838315116979221,0.677680679615598,0.175999772346727,0.240253543767926,0.123040298100352,0.363852366337376,0.15954394334491,0.0365165418942532,NaN,NaN,NaN,NaN,1.84269174465958,-96.4089816842801,2.14074399117526,stable,stable,1,0.504566765514889,0.2060092748746,0.207792726696166,0.900088718281963,0.34531542306651
81,1.83033538270159,2.6951949596405,-0.216268948508721,-1.79094281130295,1.83033538270159,-0.0685180483402095,-0.0231330832817125,0.0723177882022807,-0.00707462701038354,-0.173848814600505,0.174246455698375,0.011244247240739,0.17769397540664,0.180569109782449,15.3355630563766,1.2349742166942,1.03622597773273,0.177589963116343,0.240264103320826,0.143625432537393,0.471967675424042,0.159475428225808,0.0380824318842051,NaN,NaN,NaN,NaN,1.90149022471625,-95.3637271300002,1.96830074035448,stable,stable,1,0.52420325734358,0.207851665981674,0.209437124738165,0.893359874057046,0.336166474427826
82,2.58658020496368,3,-0.395626085816993,-2.52443991837403,2.58658020496368,0.00366618972625702,0.00563150390498787,0.00671973089794571,-0.016353102606428,-0.332480810960476,0.333383543229,0.0215281232073817,0.200337993172378,0.202887527284914,15.389120634001,2.02911316901207,1.68315763086215,0.0339371721150083,0.0588435377379544,0.126772386407576,0.447390581500482,0.0262499316215705,0.00554174952769933,NaN,NaN,NaN,NaN,2.91783086718893,-97.7855854258006,1.51779019822231,stable,stable,1,0.730332226780632,0.0942514045477945,0.0702326606513664,0.953863571943484,0.343656717152189
83,1.69416516978724,2.41192173957825,-0.304914920164559,-1.65549891266975,1.69416516978724,-0.0350126168511842,-0.00866158270757278,0.0360680794299884,-0.00704400463614949,-0.144243086871487,0.144576956958709,0.00932612439139397,0.112012328038716,0.11441228798671,15.4225932165236,1.03011651517097,0.813245597237527,0.175985040848167,0.240202381064534,0.160205409994886,0.435529208086424,0.159473469287466,0.0365864845976118,NaN,NaN,NaN,NaN,1.75027764965131,-99.5200046041142,2.12908857641506,stable,stable,1,0.474659836207274,0.168107709431807,0.185045899337493,0.897523920121278,0.328797595557828
84,2.58361325480721,3,-0.420668190388465,-2.51737886873063,2.58361325480721,-0.0165990647321223,0.0168110440524183,0.0236249899918187,-0.0182464042824906,-0.341362932195532,0.342472085839139,0.0220959482376738,0.203812015692209,0.205824410360121,15.4456905739542,1.37981642332011,1.11859861007598,0.0632727761522818,0.24045559576467,0.116025862992678,0.422103485008714,0.00197405842044319,0.00955699328165563,NaN,NaN,NaN,NaN,2.95681470906161,-98.270421652992,2.32598563480347,unstable,unstable,0,0.730128416687281,0.0980182658335441,0.0631635890823396,0.948733208090033,0.348432949781032
85,2.04365279610525,2.78826522827148,-0.458194051740014,-1.97747338702412,2.04365279610525,-0.0505654463574594,-0.00908233403024168,0.0513746353443603,-0.0143696255044058,-0.207048126413396,0.207913416595071,0.0134108604417016,0.138480951194915,0.141795933033051,15.4393561495798,1.03404423671349,0.710779475772519,0.175581229684368,0.240297586450538,0.17848551397401,0.420761146009216,0.159597469319634,0.0362856408132436,NaN,NaN,NaN,NaN,2.10680641889481,-101.731697741666,2.131192460257,stable,stable,1,0.57333326556801,0.176956480383869,0.190300875294368,0.898500055988283,0.32067310490044
86,1.97459642450015,2.85565328598022,-0.545794484015972,-1.88377015908661,1.97459642450015,0.00518703564993662,0.00689438241805884,0.00862773711700538,-0.0184572014954705,-0.185903385294599,0.187336258856372,0.0120915598490162,0.140406389299611,0.141890286877908,15.3412966374142,1.6560377723911,1.71379290689005,0.0303822484977531,0.0765383119191122,0.114609737462364,0.487319348077408,0.00978229849234288,0.00543341127434155,NaN,NaN,NaN,NaN,2.01104491577433,-105.279667622794,1.84518839112157,stable,stable,1,0.554937103908954,0.199819545637802,0.126215201519442,0.958331634699629,0.949062338905616
87,2.02468105887069,2.90525007247925,-1.16891834613371,-1.63094813520092,2.02468105887069,-0.0509312292106852,0.0022146996185669,0.0509793586004359,-0.0750322557707576,-0.141535839790568,0.164482800077482,0.0106108885987187,0.153542817598127,0.156271578898775,15.3941756733754,1.06147464731993,1.06166615403263,0.177309077692515,0.240287019235443,0.133895994808006,0.476576514719595,0.159580050875223,0.034551611102637,NaN,NaN,NaN,NaN,2.06469467336038,-124.238920485483,1.75377924360028,stable,stable,1,0.57116926481194,0.207474243805338,0.207973235557999,0.894663640571686,0.340490668974219
88,1.95857879418094,2.99875235557556,-1.10579573086429,-1.58458766613611,1.95857879418094,-0.0711428296185934,0.00895509427732352,0.0717042252566469,-0.0707352927584392,-0.138492376650172,0.161501393159837,0.0104177318962477,0.194420820371552,0.196950521347602,15.4355516318282,1.07105602779445,0.971499920647902,0.176660916438272,0.240294172408968,0.166176652203454,0.484603114061114,0.159512104573994,0.0368390982531238,NaN,NaN,NaN,NaN,2.00959748573364,-123.70580417537,1.5,stable,stable,1,0.561677782717772,0.247184825944175,0.232601199994466,0.895620887900246,0.326143710131798
89,2.61963226000468,3,-0.24915325214765,-2.57529099831607,2.61963226000468,0.00377715240437364,0.0069074276085237,0.00787270197917214,-0.0099320995812441,-0.34585010967868,0.346305132376727,0.0223548489200019,0.201330739219551,0.20413102405292,15.4155366148755,1.78097445955932,1.65753800034759,0.0304946034087384,0.0534424498562307,0.117275892261014,0.424054280515198,0.0114456786464065,0.00697135813600201,NaN,NaN,NaN,NaN,3,-94.0907171926139,1.80859570157092,stable,stable,1,0.739394807478498,0.0870260701951287,0.0598376497265516,0.957735814682076,0.347877381217327
90,1.92784252053215,2.96999502182007,-1.04758445825641,-1.58540984980187,1.92784252053215,-0.0744102944378017,0.0134157052600341,0.0756100063876762,-0.0649344216698226,-0.136973235644957,0.157462582556034,0.0101584365918025,0.192621000790013,0.195189627415349,15.3598329724056,1.09115256673661,1.10750378595032,0.177131004140021,0.240302283584392,0.161976352822235,0.459098109513981,0.159488091048567,0.0375059016490734,NaN,NaN,NaN,NaN,1.99637079272466,-122.311062912018,1.50360469797644,stable,stable,1,0.553129264291644,0.248346147294188,0.23352979408867,0.894159340873164,0.328010509856785
91,1.86570022544082,2.71468496322632,-1.12651627700167,-1.46303772001339,1.86570022544082,-0.0656020133626298,0.00700059941135799,0.0659744840779295,-0.0700950760487593,-0.114811556728154,0.13910703566031,0.00897203783884697,0.138876184305779,0.141176175462688,15.4583605629911,0.656119708649026,0.996901938027359,0.177259083406148,0.240237526491862,0.150232164328435,0.457512343131017,0.159468424752332,0.0359291233040143,NaN,NaN,NaN,NaN,1.94546366280019,-126.251978914843,1.83774966331368,stable,stable,1,0.525755295210091,0.20311688808269,0.205810124042009,0.89838243107304,0.333230149187362
92,2.62678549567858,3,-0.46692992000072,-2.55120261928181,2.62678549567858,0.00789291259507469,0.00514395377415752,0.00942116392300644,-0.0204976362667614,-0.338307442454829,0.339625060137852,0.0219251154330946,0.197571469901294,0.200254038689188,15.4373982372174,1.65368754613317,1.83873176630136,0.0256547218445676,0.0502245085771923,0.120292731394649,0.419989389377589,0.00104500222025152,0.00472996226463929,NaN,NaN,NaN,NaN,3,-99.2513675644137,2.03590152463783,stable,stable,1,0.740526939918793,0.0857004768582031,0.0536047178241954,0.959732201622873,0.346536563824601
93,1.67085937496756,2.31855130195618,-1.00567108710453,-1.3209290594497,1.67085937496756,-0.0312740694516428,0.0166356422525689,0.0354233258351278,-0.0549176975206623,-0.0933478089519335,0.110683795067526,0.00714253363587091,0.112703344076438,0.114459041282843,15.3638434074706,1.13323790387328,1.2095158706321,0.177106263187745,0.240217825074462,0.156904227000318,0.429254348440641,0.159649992783424,0.0361119273673826,NaN,NaN,NaN,NaN,1.74681180591764,-126.657123786368,2.2022474005247,stable,stable,1,0.468454308247918,0.152224959975545,0.175422138285291,0.893039517320728,0.330264787999859
94,2.64238502956518,3,-0.252161022831224,-2.59635737709048,2.64238502956518,-0.0216600469947422,-0.000169411403931381,0.0216607094998807,-0.0101441759820452,-0.353401548793573,0.353904425642586,0.0228375551527907,0.203594821244835,0.205757857876611,15.4195994457637,1.47102928898292,1.27802363232221,0.0625932530924642,0.240458475362415,0.11036653475411,0.498063452633206,0.00189687915230324,0.009023902903511,NaN,NaN,NaN,NaN,3,-94.2734617915732,2.08055492919199,unstable,unstable,0,0.74578757945937,0.084434498422813,0.0547851756923518,0.947103671929228,0.350948206775951
95,1.80458415203354,2.52523922920227,-1.14232006733477,-1.38082063698208,1.80458415203354,-0.0496044227801621,0.00295694802988609,0.0496924773079841,-0.0710842970812893,-0.101177673739127,0.126802295704245,0.00818321871248081,0.129677403654423,0.131854595224406,15.3658130427012,1.11425644895088,1.31315732682554,0.176758883002741,0.240235136182771,0.1615330374245,0.483423668829511,0.159508715648091,0.0362054852546513,NaN,NaN,NaN,NaN,1.86493072097439,-128.583435678336,2.18504064626876,stable,stable,1,0.507593359587158,0.171257679869428,0.186813001433611,0.892548021688958,0.328207538922444
96,1.71726790507634,2.62537288665771,-1.05929122874174,-1.32185821183081,1.71726790507634,0.00521946354291215,0.0011672956343354,0.00534839964603689,-0.0643881154443532,-0.0960335494295131,0.121197558984663,0.00782745404810473,0.180113001670366,0.181044531617182,15.410324592484,2.18352166287737,2.15632719999204,0.0185046139315708,0.0534391230858938,0.142626047618135,0.488455438908338,0.000243093489888535,0.00763076326519178,NaN,NaN,NaN,NaN,1.76269102467469,-127.19753908103,2.35737608407421,stable,stable,1,0.494147014343795,0.205304160790915,0.126065361031135,0.956648880540241,0.336610645503051
97,1.79017227766465,2.78423237800598,-1.10450808171247,-1.38526257757814,1.79017227766465,-0.0436798664161203,0.0149993690855671,0.0461834581110507,-0.0676173663033336,-0.103155054867515,0.127872570266474,0.00824672344479936,0.145029782280367,0.14705349413873,15.4642924534066,0.675701034961208,0.883810227515763,0.17600876986306,0.240211018666502,0.149632849267738,0.427793499993007,0.159551587369194,0.0361857413088496,NaN,NaN,NaN,NaN,1.81622668042125,-127.513201967813,1.77700775829807,stable,stable,1,0.506789972871653,0.232130489897159,0.223348561931862,0.899742312291865,0.333496511436561
98,1.8879500796666,2.63837099075317,-1.20093040577067,-1.43990847592517,1.8879500796666,-0.0488723735451096,0.0117550837092544,0.0502662002636395,-0.0776826604658808,-0.109597614458235,0.137664268727066,0.008878937620633,0.113058182953899,0.115338463453525,15.468992532389,0.921201493218106,0.80689546572674,0.175651748122637,0.240210400866708,0.159387533144786,0.448899317067414,0.156732080088953,0.0410120834020987,NaN,NaN,NaN,NaN,1.91962505408224,-128.853168090004,1.64295535264178,stable,stable,1,0.526521047268465,0.178060175042813,0.191408292160935,0.898596221261258,0.329161096380095
99,2.63079515178998,3,-0.156287190494102,-2.59361507261688,2.63079515178998,0.00497938426262015,0.00379595308452554,0.00626127203168399,-0.00559090714016245,-0.349643828307263,0.349920730685664,0.0225936701511226,0.195057017120478,0.197907936341899,15.4137355127722,1.97532980810364,1.81901077398665,0.0297116681125851,0.0518037943652116,0.135707417740557,0.428680010966318,0.0084683002186643,0.00486681838431506,NaN,NaN,NaN,NaN,3,-92.2002194325483,1.87303293649218,stable,stable,1,0.741126961079042,0.0842189907197292,0.0560648355576615,0.955331489941569,0.339685592115308
100,1.62043786733537,2.56645727157593,-1.01457171350189,-1.23146178636007,1.62043786733537,-0.0725841992590486,0.0059586079491018,0.0728283666627803,-0.05887059672604,-0.0842434653158714,0.108459399669793,0.00699399043630882,0.162315740512134,0.163968740857318,15.4788052355256,0.626272652683991,0.721744787758273,0.174559980596133,0.240224194298889,0.130335427192057,0.366582164277465,0.156769472684849,0.0400816872411437,NaN,NaN,NaN,NaN,1.68546986904653,-128.540481584722,1.51723992358636,stable,stable,1,0.464910512794229,0.226206233175635,0.219974220095427,0.902128444098459,0.342073143470197
