scenario_id,mean_wind_speed,max_wind_speed,wind_velocity_x,wind_velocity_y,wind_velocity,wind_acceleration_x,wind_acceleration_y,wind_acceleration,wind_body_force_x,wind_body_force_y,wind_body_force,mean_wind_body_risk,mean_wind_gust_risk,mean_wind_risk_raw,min_thrust_margin_n,mean_abs_roll_deg,mean_abs_pitch_deg,mean_abs_vz,max_abs_vz,mean_tag_error,max_tag_error,stability_std_z,stability_std_vz,mean_imu_ang_vel,max_imu_ang_vel,mean_imu_lin_acc,max_imu_lin_acc,wind_speed_cmd,wind_dir_cmd,hover_height_cmd,gt_safe_to_land,label,success,onto_wind_condition,onto_gust,onto_temporal_pattern,onto_drone_state,onto_tag_observation
1,2.02898373490288,2.65850734710693,-1.24940994498667,-1.5812673141561,2.02898373490288,-0.0563949277127201,0.0148333990566577,0.0583130997229351,-0.0842228270854558,-0.131561497535748,0.159852273232527,0.0103124905092189,0.123166052610586,0.125759411603117,15.4055809005648,1.13688518808304,0.998736333863006,0.175577367458393,0.240287549273068,0.142502464569919,0.407524428798089,0.156786032451755,0.0410608640854031,NaN,NaN,NaN,NaN,2.0716688985117,-127.374480982322,2.31472368639318,stable,stable,1,0.566214211628058,0.152333547695117,0.176014033010522,0.895431432884084,0.336665571302258
2,2.31206212520599,3,-1.41013637239334,-1.79265307320115,2.31206212520599,0.00212400199364109,0.00976201382237769,0.00999041031876491,-0.113786897884977,-0.175129722922349,0.218437346231249,0.0141090764117135,0.231690814198858,0.233419584245869,15.3660996827024,2.23096988344002,2.05149950864038,0.0196616092913694,0.0832312558134927,0.14427365708587,0.504702270614794,0.000389628916427813,0.00655023143325388,NaN,NaN,NaN,NaN,2.42882567996652,-126.095851442396,2.28631398682331,stable,stable,1,0.663233816904106,0.156617597053758,0.0965256289789213,0.956521221559398,0.335878374628502
3,1.7755403726693,2.5414252281189,-1.09657442097915,-1.38345043829826,1.7755403726693,-0.0320697927489519,0.0257335401132328,0.0411179607193753,-0.0658133908141949,-0.10437128606165,0.125883543140794,0.00811994523728294,0.128214636321337,0.130073898273728,15.4349719691189,0.982238182935963,0.966552862572706,0.175016425666429,0.240263858804629,0.170001107532234,0.454093721915455,0.159208041391758,0.0359516139730696,NaN,NaN,NaN,NaN,1.87319628751653,-127.297520073929,2.24465550048735,stable,stable,1,0.499492212366558,0.179862385274712,0.191749874844301,0.897179857523503,0.324443952207896
4,2.36386092067618,3,-0.680585023123119,-2.23422119859038,2.36386092067618,-0.017425090798774,0.00412926374135239,0.0179076689826221,-0.0326666304812181,-0.271567323322108,0.275131413249784,0.017756479700576,0.232459075045236,0.234009836765301,15.3998095179193,1.56065045521139,1.26283314063623,0.0625620309941564,0.240241549552078,0.123607929239525,0.450716006799668,0.00191615350694809,0.00660264318082428,NaN,NaN,NaN,NaN,2.46779887999601,-105.553838771394,1.5293591129962,unstable,unstable,0,0.677164879533376,0.146414365494673,0.0911012042343328,0.946534470535548,0.345063142560211
5,1.81120889970701,2.59309816360474,-1.04668667228679,-1.46552920768244,1.81120889970701,-0.0448931580436744,-0.00354509115040388,0.045032913634352,-0.0596955218585879,-0.11395758206869,0.13091359038944,0.00844477995562586,0.127554304882975,0.12972554640547,15.456948741065,0.957301174421014,0.994238482989428,0.177838610698686,0.240221340837595,0.166639156713442,0.422709213386815,0.156736073955424,0.0412853190820096,NaN,NaN,NaN,NaN,1.88084050141636,-125.058018224367,2.28545987389399,stable,stable,1,0.508934149202963,0.184181118543286,0.195181991742043,0.895747168771004,0.325938152571803
6,1.88501635193825,2.66708326339722,-1.0359670556664,-1.55884680509555,1.88501635193825,0.00547634466289167,0.00303809740542131,0.00626261819941227,-0.058484981074784,-0.12762686589094,0.143035741091061,0.00923064098535233,0.134614549003765,0.135763888561105,15.4428082890684,1.50535702818111,1.53746163537623,0.0309986327085915,0.0516730635482611,0.109716996193485,0.449307609602366,0.0114256475685153,0.00520540736162314,NaN,NaN,NaN,NaN,1.9161886291726,-122.783489357006,1.78892245865902,stable,stable,1,0.529823804895754,0.17711320174816,0.11323886203913,0.960592822717754,0.351236890580673
7,1.91490317039749,2.71499490737915,-1.06886387635752,-1.56539881840694,1.91490317039749,-0.0548617025139199,0.0180518408172635,0.0577553059001307,-0.063862129432606,-0.130564674071461,0.149421882642664,0.00963621745384274,0.150148733560396,0.152669905477067,15.4717164109743,0.831048046328157,0.771013969730016,0.176530065344217,0.240250983634607,0.138648061989774,0.3959044628546,0.159474004203845,0.0371553921232734,NaN,NaN,NaN,NaN,1.96867067391655,-123.586570068552,2.03661476016932,stable,stable,1,0.541174826534745,0.19060911356923,0.198753855024438,0.89914733720172,0.338378639115656
8,1.91149525982993,2.6579897403717,-1.11319433191832,-1.53021867788945,1.91149525982993,-0.0554439427687406,0.00340262489185718,0.055548255111192,-0.0692886538784024,-0.124966890056325,0.147385355419771,0.00950793495591377,0.159447506271176,0.161838701576513,15.3832613095086,0.93739340305797,1.08175757404985,0.177441725392083,0.240244913990155,0.16436179349843,0.453482813511277,0.159495139691806,0.037519619178003,NaN,NaN,NaN,NaN,1.96461919299708,-125.030810267647,2.342652422889,stable,stable,1,0.542099809603284,0.178145104892284,0.191417289570195,0.895414379626683,0.326950314000698
9,2.62693498810132,3,-0.82328340377248,-2.45940519647958,2.62693498810132,0.00761502859757173,0.00444250197532588,0.00881614906535782,-0.0446222732050794,-0.314557685290994,0.320046409442691,0.0206645950310334,0.19807196726502,0.200541824428114,15.4094863586812,1.94974359538701,1.85541181154263,0.0201160129176129,0.0576112198329109,0.129283669464926,0.460207005988419,0.000420513248098066,0.0104410571613987,NaN,NaN,NaN,NaN,2.98365709536118,-106.900241715489,2.25584438281819,stable,stable,1,0.740624361712642,0.0855559216725179,0.0553171958391336,0.960044343915318,0.342540591348922
10,1.87710413073196,2.65555238723755,-1.13406940367653,-1.48023375683566,1.87710413073196,-0.0451685794870295,0.00824993984651064,0.0459158151440998,-0.0695658097221213,-0.116044708305992,0.138311966237832,0.00892168225398456,0.127647100640493,0.129833553221775,15.4260588458913,0.969263053169621,1.0420305485985,0.176560204649657,0.241551984501574,0.172289220720672,0.452576448875536,0.156662285893804,0.0394527472911372,NaN,NaN,NaN,NaN,1.92399487038037,-126.353098118705,2.1783669295956,stable,stable,1,0.526527812172877,0.183568757156843,0.194115390473987,0.895916876518422,0.323427013013035
11,1.88013089595198,2.52181196212769,-1.16704617003018,-1.458168614366,1.88013089595198,-0.0410847107533326,0.0155931057830729,0.0439442647639838,-0.0735389643141388,-0.112318240200939,0.137394382800422,0.00886132205342505,0.123769380890789,0.126117919712683,15.4637089221888,0.866033010926734,0.821241043222808,0.176286961919954,0.240271405464752,0.145347898445825,0.430487983543048,0.15947696961315,0.035804005780196,NaN,NaN,NaN,NaN,1.90759543141243,-127.844704273722,2.4589527782308,stable,stable,1,0.526591822863064,0.152434688429598,0.175359104684684,0.89859936575742,0.335400934024078
12,2.61504790425301,3,-0.78148649437365,-2.46239317174675,2.61504790425301,0.00796734484392703,0.000890632204854735,0.00801697010012979,-0.0407446876008055,-0.315868998395107,0.320375343004754,0.0206981411185856,0.195633011448704,0.198162752628881,15.3347873187869,2.33461882154294,2.07096232105128,0.0188187394536002,0.080156081907001,0.140282685813402,0.498111633720321,0.000223234070952183,0.00424347879263096,NaN,NaN,NaN,NaN,3,-106.299635778902,2.30401702136834,stable,stable,1,0.736978658326578,0.0880839993947641,0.0544926979768242,0.955975349867103,0.337652139638488
13,1.96448075528048,2.96793341636658,-1.04256436570399,-1.63521777354738,1.96448075528048,-0.0750632401900055,0.00113157616024522,0.0750717689443168,-0.0641979555748504,-0.145940144362282,0.164643299142438,0.0106191310377812,0.196195924102999,0.198716570931105,15.44752037493,0.936776661245778,0.925562232492698,0.176861405962778,0.240294285812344,0.171109001161357,0.43288246247683,0.159355741282233,0.0371864555775841,NaN,NaN,NaN,NaN,2.02726066309477,-121.319262228342,1.68798181954093,stable,stable,1,0.563604848927681,0.239540006384164,0.228071125216471,0.896936634282094,0.323951555039397
14,2.60120559203515,3,-0.677736233107686,-2.47835318174653,2.60120559203515,-0.00823500575939432,0.00943904219480136,0.0125264056062583,-0.0347750844677907,-0.324257191318553,0.327797196154547,0.0211625467266129,0.202579622105264,0.204435378566118,15.3113849166293,1.73111277023065,1.54097185392807,0.0629312752365914,0.240453135763412,0.12835257667604,0.529516022903703,0.00194588184689512,0.00919991838943294,NaN,NaN,NaN,NaN,2.96211416560549,-104.652706865072,2.48645602273619,unstable,unstable,0,0.734541900255931,0.0920252494865711,0.0594254109372252,0.942825126049029,0.342954410366204
15,1.7187245175952,2.49244427680969,-0.925728854794558,-1.43533334447786,1.7187245175952,-0.0373716247616018,0.00320289830351581,0.0375086242731539,-0.0467473626321421,-0.109433836180784,0.120885497070436,0.00779696014620746,0.120154817356123,0.122025446484799,15.4630961260737,0.819456822267326,0.964450296186066,0.177080456793485,0.240209360635614,0.15054769451222,0.386004262584622,0.159616995205822,0.0357851923864188,NaN,NaN,NaN,NaN,1.78867162897179,-121.8764556945,1.50487456141984,stable,stable,1,0.482731627322347,0.180963526940006,0.192531800153572,0.897443358529695,0.333089913550124
16,1.7520913674434,2.6617283821106,-0.999927505203105,-1.40914519483808,1.7520913674434,0.00538960145452502,0.00262765283638792,0.00599602895816854,-0.0582283680846491,-0.108591949121897,0.128303207038069,0.00828161135103481,0.186853338929648,0.187814305290798,15.4278461525753,1.67961321277022,1.76507302209908,0.0182875543870267,0.0501063473438483,0.122775435565567,0.438991814530551,0.000301629727668394,0.0108395353733594,NaN,NaN,NaN,NaN,1.79698325918466,-123.928221238646,2.31863456596274,stable,stable,1,0.504787225709734,0.205767600275783,0.127536267048887,0.963790830961085,0.345433139748637
17,1.85336762463965,2.51661157608032,-1.01263750549692,-1.5398255883012,1.85336762463965,-0.0372022819715859,0.0139133026669315,0.0397188843624167,-0.0554285224535332,-0.125357399195321,0.13906457445706,0.00896836419952833,0.126089783329871,0.128260037612334,15.4653826234569,0.815449474611646,0.803741007239134,0.17605841108183,0.240251210883662,0.136831148547978,0.378453909401333,0.159668157043504,0.0367605599975627,NaN,NaN,NaN,NaN,1.90606506718967,-122.683382350962,2.33912196504172,stable,stable,1,0.519883374093041,0.156511684540593,0.178238112439775,0.899248583530257,0.339186156200899
18,1.85199569196117,2.63551568984985,-1.05671738791435,-1.50528944929306,1.85199569196117,-0.0566207165091619,-0.00416137463195919,0.0567734319628327,-0.0610709419967662,-0.120210507353045,0.137579903414694,0.00887555426893824,0.128489559967498,0.130870747821785,15.377778558009,0.943325066588531,1.03940075223334,0.17717007691186,0.240218283505693,0.146855029067542,0.50451574659724,0.159127240480329,0.0366469628581722,NaN,NaN,NaN,NaN,1.87952489310621,-124.36494621675,2.30320211078415,stable,stable,1,0.52003966742067,0.186700462051473,0.196069663534203,0.895836401539041,0.334731098192203
19,2.62378383715947,3,-0.786005580484497,-2.47074963882931,2.62378383715947,0.00653933549934334,0.00330595401085246,0.00732749893857675,-0.0409191519530628,-0.317666974641291,0.322258456498327,0.0208006780473836,0.195745983334335,0.198309560029291,15.4367656355476,1.85951971652375,1.50711961471735,0.03193518901689,0.0518219066019903,0.123331249845289,0.452791435435455,0.0154863180408821,0.00912363738213619,NaN,NaN,NaN,NaN,3,-106.031594526481,1.75548234936155,stable,stable,1,0.739337601915051,0.085992011444524,0.061795701205661,0.957580239317518,0.345186111179872
20,1.88102062381044,2.98409223556519,-1.00836711989283,-1.55705884349523,1.88102062381044,-0.0710957199635284,-0.0011018413503998,0.0711042576186117,-0.0600714539860384,-0.133638829506581,0.151745724832876,0.00978842231977439,0.192823814018278,0.195179301215865,15.372649255656,1.06901025963611,1.01008068640884,0.177023816249397,0.2402902888625,0.163836547076807,0.474203039884356,0.159863150951156,0.0354547389509806,NaN,NaN,NaN,NaN,1.95533603544456,-121.682915799118,1.87020016504016,stable,stable,1,0.540641359925956,0.261226893208231,0.240679057582375,0.895152377299234,0.327183756854753
21,1.94169607373322,2.89652276039124,-1.07190625904361,-1.59784238130978,1.94169607373322,-0.0535335176538632,0.0117063392798546,0.0547985026413272,-0.0644098322738381,-0.136467765594985,0.154596427482521,0.00997270938837526,0.143943878408392,0.146469429245104,15.4468987238795,1.01580298157467,1.00367539627142,0.176753295891709,0.240879012699182,0.178651961061267,0.425465842896351,0.156819835478427,0.0417980469713729,NaN,NaN,NaN,NaN,2.01006102178809,-122.843348050567,2.45074448000981,stable,stable,1,0.547079505511213,0.224882396648964,0.219826432454229,0.895756021942498,0.320599128417215
22,2.62684994657834,3,-0.73774452988938,-2.48513361752692,2.62684994657834,0.00795860511817341,0.0044064053185207,0.0090970216696512,-0.0379811593644763,-0.321273562597694,0.325366180950627,0.0210061528983648,0.193712880197083,0.196169849621242,15.393438820138,1.90312927986025,1.71418412244605,0.0260618263122031,0.0761880754405879,0.126336361818891,0.495487733335073,0.000164977811572547,0.0052927439449699,NaN,NaN,NaN,NaN,3,-105.373889448931,2.04086534528099,stable,stable,1,0.739727289011807,0.0856265493259754,0.0533738872292025,0.95854733868292,0.343850505858271
23,1.71573197273981,2.42409563064575,-0.84093295754189,-1.48240563145545,1.71573197273981,-0.0458531347544483,0.00299828881293831,0.0459510576876679,-0.0394052594021163,-0.11603716132655,0.124155676353021,0.00800983355289711,0.113798763261853,0.115687705588478,15.3815667537787,1.11907453245829,1.04855628031405,0.176929723671011,0.240234440078195,0.157253465885934,0.457470097792061,0.156682976755631,0.0411287812646761,NaN,NaN,NaN,NaN,1.75191981509009,-118.497538474994,1.71658063618089,stable,stable,1,0.480666067181645,0.167806183604909,0.185276509180886,0.894503753206997,0.330109570717363
24,2.68478714198601,3,-0.648201039889705,-2.56539115896075,2.68478714198601,-0.0336208458194813,-0.00497839292658749,0.033987433997712,-0.0279208282704517,-0.339535304125995,0.341911991061971,0.0220650552753898,0.200725574448983,0.202777902458832,15.4307441340986,1.51112983802148,1.35145859771101,0.0627031527410143,0.24019570622727,0.117893002603961,0.425856401820234,0.00185051904021304,0.00798315736119891,NaN,NaN,NaN,NaN,3,-102.185830974197,1.86410044932595,unstable,unstable,0,0.756498818354702,0.077153922619395,0.0500177727915616,0.946156657348738,0.347603109953795
25,1.73062351041911,2.48835492134094,-0.941565833794196,-1.43930454591612,1.73062351041911,-0.0419510258213359,0.00131512771987009,0.0419716348071166,-0.0486257747410426,-0.1104328297107,0.122562910897477,0.00790362413781508,0.127054975016074,0.128970336506929,15.4651489215963,0.648211245483368,0.754659406350679,0.176508192458883,0.240204329750628,0.113580808454715,0.422299271091487,0.159361718968273,0.0372605231429599,NaN,NaN,NaN,NaN,1.79680657025774,-122.144595008979,2.05793183181624,stable,stable,1,0.487293670079814,0.178184367172051,0.191287332098691,0.900723348649005,0.349519640686794
26,1.85732286989091,2.49114847183228,-1.02440295131886,-1.53456434137734,1.85732286989091,-1.09927068925216e-05,-0.00248429006505152,0.00248431438568441,-0.0565032120492825,-0.123767813203714,0.138480155051608,0.0089380126654845,0.123051942913712,0.124222514200144,15.4561182319096,1.75995473984731,1.60366094790266,0.0231602261569572,0.0466026200133984,0.124019843981833,0.438291986550449,0.00632948604117047,0.0106215917458438,NaN,NaN,NaN,NaN,1.89015622586425,-123.159855511628,2.05635557125935,stable,stable,1,0.520130601477604,0.143066218074183,0.0925152327501854,0.961991477946343,0.344880069341408
27,1.68107792115051,2.30713176727295,-0.807370455163598,-1.46096938913437,1.68107792115051,-0.0514970939816032,-0.00565388450291355,0.0518065352877643,-0.0375485958260768,-0.116356663161167,0.123737683613222,0.00798002447770604,0.127137300285793,0.129059906698137,15.4703134953593,0.825180500818499,0.820023516512313,0.174902030024685,0.240191811923701,0.119963621947327,0.393988575091537,0.159421059604227,0.035781881289856,NaN,NaN,NaN,NaN,1.77620387229689,-117.832865156267,2.42797635459754,stable,stable,1,0.474099426979765,0.150359980180305,0.174081385573039,0.899622381994344,0.346682834690077
28,1.71533122192435,2.45278286933899,-0.964159576497138,-1.40594954050214,1.71533122192435,-0.0422899152092721,-0.00230581735329185,0.042352729806639,-0.0506919398876872,-0.104905989791706,0.118535399978691,0.00764483225570209,0.121223662643209,0.123229516409329,15.4455414237548,0.723253067472868,0.878957951009148,0.176719155483241,0.240224568065163,0.132421839247808,0.462569164040725,0.159870723330931,0.0365877601039266,NaN,NaN,NaN,NaN,1.77693740749085,-123.63065316624,1.50702404212494,stable,stable,1,0.482067562461692,0.173691287799512,0.188573067531246,0.899051621398878,0.341145849223196
29,2.61362325827281,3,-0.51542197720301,-2.52975287908974,2.61362325827281,0.00790008088787981,0.00648496086452726,0.0102208607978728,-0.0228648447816631,-0.333209717073194,0.334796557572892,0.0216069720229309,0.19920904239652,0.201818581900333,15.4419264953175,1.60141827107268,1.46286903954971,0.0341928380838183,0.0529199868761288,0.109881253489012,0.460987576854205,0.0239407946271569,0.0045207029160378,NaN,NaN,NaN,NaN,3,-100.208461528465,1.50964251931407,stable,stable,1,0.737329918586148,0.0888085913682285,0.0655693999580307,0.958827037803201,0.351163887338217
30,1.86321358615849,2.58652210235596,-0.948249781892562,-1.58334939499436,1.86321358615849,-0.0467306049712801,0.0119957624878045,0.0482457019707005,-0.0507793505922851,-0.133565420092782,0.14590249500881,0.00940955900889575,0.147103843109292,0.14943598813478,15.4656305764455,0.830528374911474,0.784644057669345,0.176649000947845,0.240243090509326,0.13287982411314,0.408810413397406,0.160190664501688,0.0356920380507287,NaN,NaN,NaN,NaN,1.90894849737311,-119.745808657761,2.25540367895756,stable,stable,1,0.526744153935887,0.171589461505725,0.187128450720612,0.898984858984371,0.34094230039416
31,1.88577004638659,2.86411094665527,-0.939389320617017,-1.60465028483907,1.88577004638659,-0.0664040144892578,0.00778801635859554,0.0668591529941212,-0.0525823625743556,-0.140879053692237,0.154791619921997,0.00998541967154833,0.181381290071472,0.183697438502309,15.4128054502875,1.04494022547344,1.04760346724077,0.176834506587545,0.24029211571937,0.17390006121217,0.517236174965045,0.156657171758363,0.0400712211844961,NaN,NaN,NaN,NaN,1.95935225919259,-119.13516242978,2.09827161402379,stable,stable,1,0.539611500070219,0.23238421394271,0.223627291194008,0.895141331977759,0.322711083905702
32,2.61493350028992,3,-0.646997554831267,-2.50115343447476,2.61493350028992,0.0070441403307941,0.00527317191088755,0.00879921899953022,-0.0308099740367669,-0.325643292695822,0.328352306045997,0.0211959841219067,0.194604440396097,0.197214816746462,15.4127674821035,1.9247939004273,1.50506770385376,0.0230488744224494,0.0526411209430945,0.112271337467614,0.458644734281169,0.000229907783511558,0.00713751054651424,NaN,NaN,NaN,NaN,3,-103.01941117063,2.13549113779392,stable,stable,1,0.736758563426604,0.0882531525846826,0.0556495311684764,0.96152665018371,0.350101627792172
33,1.88739277392018,2.50634217262268,-0.811265586928006,-1.68939230665393,1.88739277392018,-0.0471718965785431,-0.00144310069019991,0.0471939653601901,-0.0370176074129702,-0.150500805350301,0.156445328266942,0.0100900340523447,0.118743020679938,0.121170625234976,15.4538351896145,0.97959515475293,0.798319181447013,0.176926059325186,0.240216953390207,0.13903812199914,0.424175511663074,0.15955562808635,0.0358515518062731,NaN,NaN,NaN,NaN,1.93692079365451,-115.089103932968,1.80315233138662,stable,stable,1,0.527538864759042,0.147915841690765,0.172700045426835,0.897567643410122,0.338205279111493
34,2.67499481359723,3,-0.573658053695616,-2.5746752307743,2.67499481359723,-0.0225244155048675,-0.00852296138495639,0.0240829849604523,-0.0256046574045926,-0.339014060390221,0.341137408880941,0.0220220779193352,0.206415807199205,0.20851335793765,15.4072019792871,1.71727230563625,1.49298344904674,0.0638313758190733,0.240300409481336,0.138099599140829,0.478931344602499,0.0018926197897115,0.0110305666630096,NaN,NaN,NaN,NaN,3,-101.157933097739,1.53532370781428,unstable,unstable,0,0.755034621880125,0.0775413808500391,0.0513771080111917,0.942860874017954,0.338622400381854
35,1.80220511981419,2.59969401359558,-0.809838549182868,-1.59039403009369,1.80220511981419,-0.0554348265614027,-0.00775607833166501,0.0559747867077645,-0.038310741073042,-0.135200663500841,0.142597763893455,0.00920188487732971,0.147715284088682,0.15002110730491,15.3616422338844,1.23461417301875,1.14379682021999,0.176064227528434,0.240240217361744,0.175630670121807,0.508125594691928,0.156664275497258,0.0406684136052447,NaN,NaN,NaN,NaN,1.86137587595629,-115.841095627455,2.24556019941008,stable,stable,1,0.510592253411433,0.189697045330569,0.198235308124283,0.893280371288907,0.321941924390308
36,1.96225238780181,2.92560505867004,-0.898643780919668,-1.71456321726435,1.96225238780181,0.00910525329470525,0.00351953251081902,0.00976180037981995,-0.0495684461116456,-0.159566866592842,0.170966681672577,0.0110352154173587,0.20860914603809,0.20986533836427,15.4396030619526,1.66408200050011,1.77882525164156,0.0223249884466822,0.0511582906755831,0.121358828801991,0.43952851352067,0.000302820088428544,0.00858078774294012,NaN,NaN,NaN,NaN,2.00134863438598,-116.022448666907,2.16729554166514,stable,stable,1,0.565240371086669,0.218544014348321,0.134381281766939,0.961786091652689,0.34606274275467
37,1.79168824435902,2.78183650970459,-0.807887662844877,-1.57285011667975,1.79168824435902,-0.0647772084836968,0.00148557427478984,0.0647942410239231,-0.0408214975345778,-0.135977162000096,0.145134911597256,0.00936171702996331,0.189279183295645,0.191543920056178,15.4143884773409,0.976016555886254,0.918034221126212,0.177110089325864,0.240242022219201,0.133991660142201,0.441873456944498,0.159514817409664,0.0380206439761013,NaN,NaN,NaN,NaN,1.84847057739295,-116.145839673518,1.5,stable,stable,1,0.516092315840308,0.234662303890472,0.22551854545716,0.896563127803399,0.340448151047911
38,1.9417759999126,2.74173069000244,-0.764081874713981,-1.76521578003847,1.9417759999126,-0.0556019452229437,0.00405520147068323,0.0557496275462273,-0.0346661882874074,-0.165061195263361,0.170337772765069,0.0109875079159803,0.151998223037485,0.154789998728629,15.4257028388626,0.951991870291741,0.925008424002399,0.176777381238432,0.240253229104489,0.127754239665866,0.500210013977136,0.159451467155269,0.0335842745301586,NaN,NaN,NaN,NaN,1.9993932608471,-112.620106358339,2.08158100030741,stable,stable,1,0.548764933055752,0.190210570320356,0.197206124393401,0.896863449925616,0.343220337926282
39,2.6307738395532,3,-0.620227004773895,-2.52280737117908,2.6307738395532,0.00883014156374289,0.00113716911792143,0.00890306428363257,-0.0293497619230692,-0.330740870606341,0.333249820201811,0.0215131246031704,0.194935943533138,0.197638475058739,15.4147044267671,1.9010017571222,1.59927300594069,0.0268450219140039,0.0498104774822103,0.12665901354623,0.427696519054933,0.000579107654608171,0.00486110283661496,NaN,NaN,NaN,NaN,2.9987372183553,-102.731971335258,1.96018755766503,stable,stable,1,0.741067385559267,0.0847081145525299,0.0528499236701129,0.959075330190361,0.343707105090565
40,1.89520787625086,2.67123889923096,-0.294457064876243,-1.8590627795326,1.89520787625086,-0.0387562202251736,-0.00362394636076123,0.0389252821873886,-0.00725923872303958,-0.181448060600656,0.181752455334674,0.0117290238776229,0.136512378113798,0.139557890721467,15.3500263780235,1.31248218866444,0.999504972810146,0.176995182883067,0.24023779349057,0.154743002349825,0.461409325608606,0.156820577199791,0.0393053268251894,NaN,NaN,NaN,NaN,1.96262077332345,-97.9255988407311,2.47608890420161,stable,stable,1,0.533300345144522,0.181743281904877,0.193036849572195,0.893336795146881,0.331225332288967
41,1.88172157929868,2.660569190979,-0.262631466918181,-1.84254354433566,1.88172157929868,-0.0579423638432803,-0.016100169776599,0.060137617134223,-0.00759600135496085,-0.180398745382354,0.180782158065097,0.0116648653489756,0.1595207543648,0.162489055611503,15.3803348746781,1.27245958540964,0.927308169452667,0.177366348646534,0.240255877065083,0.160116328186792,0.446211692921052,0.159194347573689,0.0368350362895569,NaN,NaN,NaN,NaN,1.94919332297993,-97.076725643542,1.51724729602509,stable,stable,1,0.534290232268616,0.186265942436013,0.19590716747844,0.894032936174243,0.328837187472537
42,2.61012430707614,3,-0.63194502122029,-2.49881095082656,2.61012430707614,0.00378378271406669,0.00217408981093176,0.0043639062929063,-0.0302135699807123,-0.325350371637603,0.328021469342714,0.0211874372524028,0.198381807729313,0.200949972531866,15.3408047876921,2.18973928976131,2.01667277733786,0.0226924086194917,0.0731629863859054,0.137711636306318,0.504603322777149,0.000536162631664149,0.00522748430839014,NaN,NaN,NaN,NaN,2.97766096785849,-102.83550377438,2.14097490774943,stable,stable,1,0.73622314306001,0.0885220803949021,0.0552524461247723,0.955603415163046,0.338794828308303
43,1.81816282888659,2.60162568092346,-0.23395748583086,-1.79065217371656,1.81816282888659,-0.0383488974865254,-0.0167554920837349,0.0418495454383932,-0.00547686503375084,-0.170158680807235,0.170367441301303,0.0109866432028741,0.137214816583288,0.140026951312105,15.4717160876057,0.785280042353295,0.553902735780069,0.175573350351388,0.240256774250023,0.118322848194272,0.366792088611456,0.159366536467322,0.0362055014933393,NaN,NaN,NaN,NaN,1.87761184680711,-96.9149867627548,2.28801444346326,stable,stable,1,0.512848811298845,0.183951558372002,0.194366143693124,0.901691174424687,0.347412067469212
44,2.55651995714973,3,-0.619369369599841,-2.44350274237367,2.55651995714973,-0.0269346150472128,-0.0145219323606852,0.0306000001181349,-0.0275851491919102,-0.306805930540779,0.309364714251022,0.0199604801004965,0.224173227781663,0.226070726661144,15.4297962324615,1.34174982137622,1.09382451106199,0.0635324155547491,0.240283751754025,0.0988567118101883,0.394846440397856,0.00185336121474507,0.00982001183695416,NaN,NaN,NaN,NaN,2.70268226585959,-102.84402520654,1.78888733999273,unstable,unstable,0,0.726952800572157,0.105393009662969,0.0676304352884796,0.949097136753468,0.356063683639916
45,1.6811722216963,2.40080547332764,-0.241032802192468,-1.64639251015092,1.6811722216963,-0.0463322754576972,-0.0148578603243564,0.0486563023924549,-0.00623041579840903,-0.144796227322304,0.145088096732724,0.00935724032063747,0.140586865508229,0.142898900874398,15.4565980753997,0.820638647621918,0.682107372601849,0.17668085585137,0.240194208269518,0.150706539317714,0.451004661912543,0.159670453686917,0.0361143079318133,NaN,NaN,NaN,NaN,1.74484723470437,-96.8322370152764,2.26990776847239,stable,stable,1,0.476892372627225,0.170837803722335,0.186599803928044,0.899852281915414,0.333019315858794
46,1.68838728785515,2.49244117736816,-0.24032677403548,-1.65533198737192,1.68838728785515,0.00552451970717519,0.00571747304453711,0.00795046011309883,-0.00593020582034195,-0.144163882202278,0.144440679447636,0.00932856134725747,0.135318070705799,0.136464603733744,15.3482758703681,1.92900825582412,1.9292200191875,0.0308403757645907,0.0678131575801871,0.123929719185226,0.477536392779481,0.00901273620067911,0.00481667204795991,NaN,NaN,NaN,NaN,1.71876069037497,-96.5690723186371,1.8138275502522,stable,stable,1,0.477529530841455,0.182369709494497,0.115179003338682,0.95426516138547,0.344920124806566
47,1.77927807237015,2.44496774673462,-0.144552575722687,-1.76249868412554,1.77927807237015,-0.036106676139159,-0.0212033866785537,0.0418721347492384,-0.00268768084837526,-0.163825789221808,0.163890952232538,0.0105724230029921,0.132671352757106,0.135481797477138,15.4199496368728,1.05932542344148,0.777092642417704,0.177049751673099,0.240203252537085,0.133629863174197,0.413158687632603,0.159609864654241,0.0361081117147659,NaN,NaN,NaN,NaN,1.8330973949862,-93.5355183886098,1.8478660795671,stable,stable,1,0.501570512127468,0.157456734769365,0.17854198092746,0.897046125074557,0.340608949700357
48,1.71175705170145,2.414874792099,-0.196513050276427,-1.68947519148802,1.71175705170145,-0.0387659873553997,-0.00961806830560243,0.0399413196273013,-0.00396779577212495,-0.15035050953023,0.150471847639959,0.00970931548446772,0.11231057978227,0.114847483839632,15.3504581523047,1.12921966921967,1.00538792019789,0.176501162394725,0.241356310116491,0.170521259043025,0.459151755647232,0.156632025512442,0.0418172132438263,NaN,NaN,NaN,NaN,1.76093856199151,-95.8152911333806,2.14309556361357,stable,stable,1,0.479438043888313,0.165524066854454,0.184134933035149,0.894977502028642,0.324212773758656
49,2.63173275748889,3,-0.675427198293953,-2.50830511874912,2.63173275748889,0.00896816115741966,0.00218323643523947,0.0092300831999288,-0.0334502930801792,-0.327063871241231,0.330304171733254,0.0213380219192019,0.198928695218271,0.201664049871411,15.3362540084069,2.23822566475162,1.99991029540628,0.0343464457553406,0.0762396090839333,0.126940213112141,0.494585480689958,0.0241541021890639,0.00490741779359089,NaN,NaN,NaN,NaN,3,-103.690253195533,1.5,stable,stable,1,0.742128211971319,0.0845523114849874,0.0632510589807711,0.949527137435375,0.343582127505715
50,1.65083588872637,2.50126791000366,-0.165731970593431,-1.62726053639619,1.65083588872637,-0.0475582557986857,-0.0305188811547606,0.0565083162158599,-0.00373963669566111,-0.141529372249789,0.141655567289205,0.00913939349416926,0.133510987160675,0.136039840572601,15.3516402149795,1.01545084306236,0.952278412962517,0.176970246850207,0.240192392468992,0.151854654159025,0.464781288489898,0.1597728112484,0.0342098759177491,NaN,NaN,NaN,NaN,1.72627812567413,-94.411640590645,2.1266650320104,stable,stable,1,0.467430871774886,0.201707062760298,0.204474330867982,0.89605414670613,0.332509042595989
51,1.59405940000703,2.24730253219604,-0.134657792945446,-1.57241593673925,1.59405940000703,-0.0401678135448374,-0.0101807193165177,0.0414379088610241,-0.00293445715055718,-0.131992861015674,0.132109412850227,0.00852534966793567,0.127669486363146,0.129877399322778,15.3489706643139,1.19939066159821,0.993053102164991,0.177058883885114,0.240552133517849,0.15059669414961,0.451630285044591,0.156676119412495,0.0404666194039081,NaN,NaN,NaN,NaN,1.64198518080473,-93.7945426045898,2.47752946560239,stable,stable,1,0.451057986533096,0.154576654700383,0.177094957998922,0.894244214199304,0.333068135933506
52,2.60346044943883,3,-0.625458120681981,-2.49413201153383,2.60346044943883,0.00450515887014743,0.00403808502168784,0.00605000719732197,-0.0293592164300965,-0.324599973016718,0.327075469345435,0.0211188924050961,0.200838031328984,0.203420880189034,15.409505870015,1.95878636997255,1.76040156928875,0.0208067442911049,0.050750306983402,0.141324871598387,0.466169103716275,0.0138491806641879,0.0112147864145067,NaN,NaN,NaN,NaN,3,-102.899260755177,1.68848300825678,stable,stable,1,0.734940295888161,0.0903305668624393,0.064431635674499,0.960374436903109,0.337188945956273
53,1.7241697127387,2.37342619895935,-0.146144974663445,-1.7056029523657,1.7241697127387,-0.0431009507892441,-0.0204144106750008,0.0476910905950413,-0.00290552864124296,-0.15312855587895,0.153210338875488,0.00988276069378153,0.110426940962804,0.11316906559124,15.4312717708205,1.00521653025411,0.71302890916287,0.175137169162318,0.2402079015054,0.121397651993498,0.410259392704671,0.160071260847767,0.0366227335765619,NaN,NaN,NaN,NaN,1.76767167051157,-93.7767495596924,2.21205885024203,stable,stable,1,0.482412403181902,0.154826076008737,0.177355785868454,0.898930915537708,0.34604548800289
54,2.67547006077237,3,-0.584012921034328,-2.56913773386396,2.67547006077237,-0.0325730730891898,-0.00638612803742606,0.0331931878822161,-0.0247788671356174,-0.33973382414646,0.341713076785522,0.022048325726766,0.203929776586395,0.206087498786246,15.4500718213519,1.43769112459923,1.16941835826151,0.0634622283230531,0.24024535221835,0.107335004544596,0.413673016264004,0.0018329306017038,0.00838760455832038,NaN,NaN,NaN,NaN,3,-101.106544404973,1.53255201525696,unstable,unstable,0,0.75467618262988,0.0791046541046239,0.0513274663069612,0.947784454187425,0.352295553535735
55,1.60356124525978,2.17776012420654,-0.140997958161693,-1.58721042432866,1.60356124525978,-0.036048583456878,-0.0133603725370934,0.0384447645795552,-0.00258433719732175,-0.133411047182678,0.133479208790875,0.00860824027622976,0.107527422929943,0.109768752960763,15.4644217583147,0.806649175785436,0.581426673123666,0.176594690285631,0.240179250108939,0.131673904485197,0.409280099656682,0.159530350797868,0.0358235375774377,NaN,NaN,NaN,NaN,1.6954412846166,-94.4207914550518,1.50624018234937,stable,stable,1,0.449570082661429,0.136242954602606,0.165674891831199,0.900796344615756,0.341478264673246
56,1.70057060758273,2.32389187812805,-0.0851157633066873,-1.68668975945776,1.70057060758273,0.00357786750350676,0.00541074772717867,0.00648670385017066,-0.00149154394518065,-0.148522732145828,0.148564200856238,0.00958695545181766,0.114661572547087,0.115853541441977,15.3877877366871,1.52822810869626,1.28190567887267,0.0315689373844654,0.069679491490266,0.102755787444887,0.444070167731794,0.0161779096988964,0.00589202190679082,NaN,NaN,NaN,NaN,1.73280982852964,-92.1431804697514,1.72283242738627,stable,stable,1,0.47665620364379,0.141436514911896,0.0941946444561871,0.962135908691154,0.354330761135606
57,1.60972834282181,2.19477987289429,-0.190302998133875,-1.58814878315763,1.60972834282181,-0.0340141579287527,-0.00336178527816918,0.0341798850182186,-0.00365265726807448,-0.132867564340331,0.132982072096911,0.00857726682509511,0.112150787659452,0.114389307760828,15.4559007004887,0.852113228783207,0.740260774311686,0.176566548621388,0.240162148245838,0.134951145212496,0.369365476611567,0.15945993797932,0.0345766140496909,NaN,NaN,NaN,NaN,1.65239533729994,-95.8334835366937,2.27338858112217,stable,stable,1,0.452138752971315,0.137902906519648,0.166186141658041,0.899205215664989,0.340021713238891
58,1.62426288557701,2.51296019554138,-0.101656477331757,-1.60003465699539,1.62426288557701,-0.0563519254139901,-0.0303424095571652,0.0640015727587897,-0.00268945151296492,-0.139479896405715,0.139612826516776,0.00900824890694033,0.158730480713303,0.161086908979922,15.3704730183779,1.17229591617841,0.923554763896138,0.176926995798944,0.240227772429608,0.151091446598877,0.436735973559093,0.159470237869896,0.0371611968431179,NaN,NaN,NaN,NaN,1.68060545220575,-92.4282145747537,2.2183755221417,stable,stable,1,0.465354151283188,0.211690516414428,0.211403133612572,0.895069103899942,0.332848245956055
59,2.51632022023201,3,-0.503340932114495,-2.43360088150468,2.51632022023201,0.0062744914736093,0.00531671094656493,0.00822415093135572,-0.0220343587782443,-0.31099603836324,0.312563284561984,0.0201755989983855,0.212304152951841,0.214785326005409,15.4202661129447,1.67220053951169,1.69703145000908,0.0262705892699463,0.0624005019941394,0.117085413932048,0.487216240742004,0.00135236519614027,0.00924056761437041,NaN,NaN,NaN,NaN,2.78982386220964,-100.41262924442,1.98902382940605,stable,stable,1,0.713975790596284,0.11033571145188,0.070162684474638,0.960392168304507,0.347962038252423
60,1.68519570632857,2.28198456764221,-0.0831963214431729,-1.67248009833759,1.68519570632857,-0.0411529259441081,-0.0171559498691242,0.0445857592698964,-0.00137794184584485,-0.147468532115937,0.147509852241705,0.00951468782628698,0.119829931247189,0.122295554273421,15.4241326364377,1.03837464380981,0.666936009397387,0.176444080037458,0.24020934522188,0.12014098057653,0.405139316173356,0.159481629225558,0.0375442972607582,NaN,NaN,NaN,NaN,1.72864210057146,-91.9462754292346,1.80549920390755,stable,stable,1,0.473844632542302,0.142451549661718,0.170004125628464,0.898379090563215,0.346604008632653
61,1.59019360736925,2.34297370910645,-0.186331832376809,-1.56946164740296,1.59019360736925,-0.0394937279648659,-0.00711413178649748,0.0401293585749696,-0.00350950634003138,-0.130059122880668,0.130167867777814,0.00839553387942726,0.112024110246565,0.114296711030221,15.4290724249081,0.75257621004995,0.669177256911267,0.176684147593873,0.240178880071817,0.143948793775749,0.446693874586345,0.159534739744839,0.0369758235871806,NaN,NaN,NaN,NaN,1.6541677253945,-95.777639022521,2.47884227280574,stable,stable,1,0.446910970837844,0.176732571962947,0.190389625984954,0.900487006105511,0.336022758321889
62,2.59226785898209,3,-0.520524804804556,-2.50649228671558,2.59226785898209,0.00469265200831836,0.00197247736719402,0.00509034869486041,-0.0231712152737466,-0.327833476500112,0.329489592143784,0.021272260312882,0.200214412690124,0.20278338074056,15.3976063093784,1.89550745536897,1.66657245011713,0.0296874173780402,0.0707340698462266,0.113164052513093,0.456240339665449,0.00819517838049202,0.0049663448718154,NaN,NaN,NaN,NaN,2.96888331606625,-100.576107342626,1.85625842550628,stable,stable,1,0.731828105210002,0.0926729623230884,0.061052022486045,0.957168520625018,0.349704865549737
63,1.54355096897563,2.15709042549133,-0.0757701656752285,-1.53084002360164,1.54355096897563,-0.0386307573873839,-0.0195839063628344,0.0433112549431575,-0.00135376196728501,-0.12476973291233,0.124805964601392,0.00804902579414056,0.108735021771577,0.11070453263294,15.4697639898991,0.775645842235285,0.63545859269487,0.17629666144158,0.240208411055669,0.139329281363495,0.403264100078376,0.156672260373127,0.0426698569518685,NaN,NaN,NaN,NaN,1.60300708299886,-92.1234906695166,2.00942272596215,stable,stable,1,0.433754498253424,0.145986774455611,0.172740492013618,0.900764420147616,0.338075874949558
64,2.63822857905223,3,-0.617897305958327,-2.52958466955813,2.63822857905223,-0.0224572860216761,0.0051978471931473,0.0230509720164395,-0.0290039358374569,-0.33746075850362,0.339946798179946,0.0219516293019001,0.202411764094463,0.204423429009669,15.3252939428542,1.9200071556976,1.6405444123551,0.0625769529535371,0.240554918305297,0.131027003635635,0.448349611999529,0.00189509927581016,0.00756901122663514,NaN,NaN,NaN,NaN,3,-102.201792877698,2.17738070229713,unstable,unstable,0,0.744412306882529,0.0856245812495948,0.0549693828133378,0.940735761202817,0.34176577616194
65,1.52440065875345,2.19251370429993,-0.142452791841158,-1.50694815642681,1.52440065875345,-0.0361275578348982,-0.00507001467393842,0.0364815773220932,-0.00259415343864462,-0.119513927489076,0.119587886105241,0.00771673731650251,0.103705621263002,0.105665030495919,15.3496465375344,1.15226479713654,0.963787152623196,0.177623433936281,0.240163009357255,0.146703230089207,0.465628507669475,0.159574924371094,0.034124561364954,NaN,NaN,NaN,NaN,1.55228808798252,-94.2268777224065,2.15004548213572,stable,stable,1,0.427639848433438,0.157013724423674,0.177539354669017,0.894562160569461,0.334798564404797
66,1.57967737058798,2.27217292785645,-0.12935366490021,-1.55907631149526,1.57967737058798,0.00389060797390826,0.00313150423898606,0.00499431168484969,-0.00274199972906219,-0.128354930406394,0.12845746770283,0.00829428837392342,0.134243360046398,0.135284795052304,15.4253429788293,2.05929592967919,1.67153411275769,0.0290927052137124,0.0549001528372914,0.132094590219055,0.36872490455777,0.0074873645756518,0.00625085570136606,NaN,NaN,NaN,NaN,1.60696450398557,-93.5145725727472,1.87799544418311,stable,stable,1,0.448304257833923,0.156727124194293,0.0996370305426146,0.956139982773997,0.341291293235976
67,1.65487647705338,2.37194442749023,-0.104117385279006,-1.6363793491428,1.65487647705338,-0.0411972495230571,-0.0210554587639263,0.0462660319459583,-0.00216134088025327,-0.142181067042716,0.142258798370381,0.00917723494072433,0.133327310798671,0.135707252439181,15.3970489922171,1.12375283536816,0.805102365665796,0.176491834364799,0.240192924321262,0.124169689017099,0.424793936769187,0.159467174620717,0.0358925136487211,NaN,NaN,NaN,NaN,1.70472744872138,-93.0615211949791,1.95389479741123,stable,stable,1,0.468441844368736,0.169822394705052,0.18581955979945,0.896598791952334,0.344813471547956
68,1.58403484107686,2.25205540657043,-0.119426701227856,-1.56887041661618,1.58403484107686,-0.0350972827857611,-0.00302903660049443,0.0352277493131596,-0.00201885431797096,-0.129874408459078,0.129928066528715,0.00838172551794464,0.112131937009021,0.114340881875286,15.4156623086694,0.97944641493987,0.846928713917915,0.176422261576285,0.240183532116397,0.146995943113334,0.456109165991165,0.155708856873922,0.0402458326583367,NaN,NaN,NaN,NaN,1.6346567991892,-94.1375227104005,1.63524411013887,stable,stable,1,0.445277467328886,0.156763047943467,0.177896613393885,0.897438778913689,0.334668469727407
69,2.62125501394272,3,-0.391334124080971,-2.56129452129248,2.62125501394272,0.0060322629451113,0.004153824435529,0.00732410087861716,-0.0160088273482538,-0.341085552582242,0.341919803685028,0.0220854848160948,0.195958748878589,0.198678553355177,15.3912660981428,2.13423913256299,2.05861470020332,0.0147747166598711,0.0511172120200458,0.139788504837823,0.406250701723687,3.72795186192042e-07,0.00945580693753221,NaN,NaN,NaN,NaN,2.97762147861884,-97.4745863886534,2.49369630437047,stable,stable,1,0.738737047722427,0.0865603736906348,0.055374865151142,0.959668790126901,0.337871775627634
70,1.68623326343744,2.54897356033325,-0.0772866464620753,-1.66065668735848,1.68623326343744,-0.0561108103489487,-0.0258351248546074,0.0617727829571312,-0.00205236012030549,-0.15045142468775,0.150598633327902,0.00971474442553003,0.1719696679649,0.174560710378338,15.3679202890561,1.05285201980171,0.855891187888487,0.177200000764531,0.240210829379975,0.129893096986411,0.438124825482806,0.15944100739987,0.0368157772282311,NaN,NaN,NaN,NaN,1.74106956136438,-91.9626622500687,1.620136568184,stable,stable,1,0.484574345658985,0.205441577010365,0.207515171517437,0.896402731557312,0.342269734672706
71,1.63440282693526,2.46173167228699,-0.204099975187563,-1.61044861752577,1.63440282693526,-0.0429098729563427,-0.0250630146569878,0.0496931776084591,-0.00425832618550479,-0.137081595905986,0.137235455891175,0.00885227071582453,0.114906857141908,0.117240084403791,15.4507704371063,0.977456260771861,0.726798547327373,0.177041769350473,0.240178704873878,0.154509923989655,0.406124688113208,0.159478276721701,0.0380079289325591,NaN,NaN,NaN,NaN,1.67774962146967,-95.9395937551425,1.54695571673605,stable,stable,1,0.45928877073016,0.195259406099024,0.201855942824333,0.898088541832555,0.331328922671264
72,2.62009278496106,3,-0.606431233481985,-2.51687017570631,2.62009278496106,0.00364369155361091,0.00383100703549658,0.0052870694192416,-0.0281102622725918,-0.329695594166305,0.332008913232371,0.0214332859564629,0.197103776875415,0.199746611262532,15.4026418564715,1.78276381844332,1.77924918728724,0.0334849395777939,0.0680440798171777,0.112889159368138,0.466321157593419,0.0246860657757046,0.00506862970965126,NaN,NaN,NaN,NaN,3,-102.28205700878,1.55178314721173,stable,stable,1,0.738640731575457,0.0864484194439547,0.0646837745318117,0.955270285166077,0.349827040280828
73,1.68325244893833,2.61040997505188,-0.161651413889174,-1.65750878389067,1.68325244893833,-0.0428528096531247,-0.0113499571817902,0.0443304051774333,-0.00372570817287591,-0.14629937716644,0.146455143297973,0.00944907176014996,0.145342154543969,0.147806342323772,15.3579231900584,1.16562633971519,0.902290365574539,0.177535366091096,0.240229836631741,0.156905364975907,0.472481252761063,0.159377976399133,0.0360632191520094,NaN,NaN,NaN,NaN,1.730743683828,-94.7490683234343,1.88207603492824,stable,stable,1,0.478428588181643,0.216737684324745,0.213991164645697,0.894984399984318,0.33026428223293
74,2.6603151679039,3,-0.581307806614039,-2.56361371973447,2.6603151679039,-0.0219550724225833,-0.00456774516513622,0.0224251979026831,-0.0261599664916311,-0.340945580438284,0.342942559008321,0.0221458168184132,0.203626679581783,0.205750445110377,15.3111831917828,1.91107561009243,1.66144342947367,0.0624879398288339,0.240463112997466,0.135693813791346,0.463398008795261,0.00187420304377207,0.00977004982363245,NaN,NaN,NaN,NaN,3,-101.440236798872,2.10726981822483,unstable,unstable,0,0.750567467129782,0.080540373503781,0.0527099486232458,0.940686237631849,0.339691638314957
75,1.67433621932049,2.32889366149902,-0.191661572968349,-1.65177182818339,1.67433621932049,-0.0418564855768549,-0.023798105305226,0.0481488857707433,-0.00392507144310919,-0.143263646816643,0.143387670910619,0.00924864102812332,0.104107027053935,0.106602088412515,15.4377152512429,0.985046551619601,0.65461732064597,0.176011846417417,0.240183485967825,0.115867541901428,0.410461518731874,0.159503480545057,0.0345492531981455,NaN,NaN,NaN,NaN,1.72844746755899,-95.0560971705178,2.39848772510824,stable,stable,1,0.467810076167968,0.156102720214806,0.177115432726012,0.899111003509205,0.348503314710477
76,1.74428464432557,2.68999886512756,-0.228109684000395,-1.70648874940077,1.74428464432557,0.00486620206390954,0.00503735414697083,0.00700391742732606,-0.00687078268900661,-0.158298340775076,0.158650375707066,0.0102383113697902,0.186728262201705,0.187999133491103,15.3915694024645,1.50207101559888,1.4827742597595,0.0334726000658008,0.0679749293078686,0.100871691095788,0.438125223604548,0.024214392681833,0.00519966000354852,NaN,NaN,NaN,NaN,1.80133462105751,-96.2777836497926,1.57217550210157,stable,stable,1,0.502742398518374,0.214069751208791,0.141094588484147,0.959811344232141,0.955168137290761
77,1.72284960986784,2.4017186164856,-0.136932263422338,-1.70506088940545,1.72284960986784,-0.0389381220935329,-0.0104253029690104,0.0403096054826456,-0.00257197103306808,-0.153491823204689,0.153562548247715,0.00990440779977345,0.116311080790445,0.11895860631196,15.3968733134833,0.903375379650351,0.647857757160622,0.175110728115944,0.240207566741227,0.121836827430872,0.384589893792313,0.158182232425085,0.0361710809732446,NaN,NaN,NaN,NaN,1.75923009576763,-93.8331549635916,2.27704805276224,stable,stable,1,0.483218283893815,0.16013562082748,0.179537707261544,0.90025637558137,0.345850298919612
78,1.73596966743469,2.76691341400146,-0.206378328461021,-1.69631326260145,1.73596966743469,-0.0769547318939525,-0.0338107287991576,0.0840547211214236,-0.00670120744362564,-0.16367856522028,0.164063194997578,0.0105824724470124,0.199492120013256,0.202384051064789,15.4619412081678,1.01476722080957,0.725307017557727,0.174563695696999,0.24025178341078,0.152471915557315,0.379507544321949,0.157908367144783,0.0367835123953464,NaN,NaN,NaN,NaN,1.84421771642335,-95.6415120879709,1.91639122280645,stable,stable,1,0.503402054862209,0.247372375183118,0.23198074430788,0.899046140278615,0.332234704196749
79,2.62894803802172,3,-0.407770109105267,-2.56443079200382,2.62894803802172,0.00502451213527494,0.00235280238698973,0.00554809888788491,-0.0172378868644567,-0.341920691594859,0.342901220118799,0.0221244647064014,0.197865180570087,0.200576385796203,15.4591556692393,1.3863129527583,1.23986898453358,0.0327187258284805,0.0486706888605053,0.102080840683193,0.414480787762288,0.024555720539615,0.00564878310908588,NaN,NaN,NaN,NaN,3,-97.5958361626102,1.51358214401801,stable,stable,1,0.741168087298367,0.0845038429078911,0.0636700622666554,0.963006350435609,0.354630737474136
80,1.7729387842879,2.49524545669556,-0.205591111664142,-1.74761489819068,1.7729387842879,-0.0391638122598197,-0.00560668689992088,0.039563103122937,-0.00457142454735134,-0.16161577805132,0.1617704063367,0.0104340367063492,0.136181827559173,0.138917231875108,15.4655987965586,0.98903487973431,0.658627967742008,0.176133474334987,0.240269074330394,0.158699801366783,0.395859967485819,0.160068522525888,0.0382403129379972,NaN,NaN,NaN,NaN,1.84269174465958,-96.4089816842801,2.09694178134272,stable,stable,1,0.500567122185128,0.169772236864261,0.186910476026708,0.898987340459478,0.329466754948096
81,1.83260417795506,2.58839797973633,-0.204981055476672,-1.80228441059829,1.83260417795506,-0.0536647431955953,-0.0223254663753888,0.0581234127622235,-0.00559129101688143,-0.17308726820664,0.173326186757531,0.0111802772490864,0.158708381241727,0.161565613695442,15.4069956198546,1.07072871181781,0.701353899467671,0.177475067706315,0.240260854012659,0.159437305341572,0.475669548637524,0.159398236491541,0.0347784523400951,NaN,NaN,NaN,NaN,1.90149022471625,-95.3637271300002,1.94256793418669,stable,stable,1,0.52100757019377,0.180709564407194,0.191916109249076,0.897338959915314,0.329138975403746
82,2.59917729655902,3,-0.414648649684944,-2.53099982039546,2.59917729655902,0.00581530062024188,0.00533528539898724,0.00789195739930418,-0.0179062930291346,-0.333558520476737,0.334648307094317,0.0216243863710944,0.202884928462194,0.2055488736971,15.3248536480843,2.34026446383455,2.19522085145665,0.0238715684956812,0.0773345050069431,0.134258467939541,0.47010634057862,0.00015887919111451,0.00603689692004771,NaN,NaN,NaN,NaN,2.91783086718893,-97.7855854258006,2.11361866536802,stable,stable,1,0.734223720488491,0.0916319671307605,0.0572450284959387,0.952428259703443,0.340329569804648
83,1.69687539217423,2.43614864349365,-0.299817121712401,-1.65935714789362,1.69687539217423,-0.0430738680964656,-0.0128173910516121,0.044940445326695,-0.00673684370871175,-0.145445865611512,0.145743826915113,0.00940179075837182,0.118779034945781,0.121204679334086,15.3667756824151,0.970453496272081,0.862507358282269,0.177439955071351,0.240216637072808,0.137131819278061,0.445500451277028,0.159840402477296,0.0369955654899348,NaN,NaN,NaN,NaN,1.75027764965131,-99.5200046041142,2.01685401062387,stable,stable,1,0.476741040446613,0.174575563190097,0.189238449698287,0.89687818717854,0.339052524765306
84,2.58772636161131,3,-0.418812876489011,-2.52117233380295,2.58772636161131,-0.0172299194169368,0.0144321567704891,0.0224757040415225,-0.0181859973394839,-0.342597012752723,0.343717244122891,0.0221830044255373,0.207144162094674,0.20916960357538,15.3933954622485,1.58425644346535,1.23518556632881,0.0625535766253192,0.240422323961777,0.114489425987955,0.443654265441203,0.00195302008482989,0.00928231860673966,NaN,NaN,NaN,NaN,2.95681470906161,-98.270421652992,2.23327201294234,unstable,unstable,0,0.731894283811425,0.096882114378401,0.0623726661379006,0.946570453038958,0.34911581067202
85,2.03372554146514,2.8491222858429,-0.447228716460049,-1.96151735072168,2.03372554146514,-0.0616191259671776,-0.00861101236754835,0.0622178930770961,-0.0156386582512441,-0.204145479937418,0.205324038853419,0.0132437682298546,0.157418974563316,0.160768469931844,15.4553491277603,1.07314859818705,0.700623431106271,0.177065521726945,0.240331035272517,0.165014516018347,0.384552466069006,0.159715431970388,0.0385643009548473,NaN,NaN,NaN,NaN,2.10680641889481,-101.731697741666,2.25130019561959,stable,stable,1,0.574480505043738,0.194870881215797,0.20193054732616,0.897530458906366,0.326660215102957
86,1.97059814810753,2.71760439872742,-0.551622828665564,-1.8716864464475,1.97059814810753,0.00555191387632063,0.00717130958081857,0.00906925734523074,-0.020290444699533,-0.184816611832095,0.186713931864751,0.0120508577583142,0.161942874230932,0.163395710890474,15.4004144248079,1.62800413918408,1.5439300912946,0.0325422971918407,0.0753557277656024,0.12013888544393,0.486084263646078,0.0214826952851036,0.00609468004385141,NaN,NaN,NaN,NaN,2.01104491577433,-105.279667622794,1.64404203666051,stable,stable,1,0.558171981673436,0.169739103569434,0.113607574001491,0.958806511021747,0.346604939802698
87,1.96565313596983,2.7990939617157,-1.1140266031593,-1.60363294072619,1.96565313596983,-0.0599230643493546,-0.00999910954386846,0.0607515911946936,-0.0686906276736425,-0.136630247522719,0.155838526015415,0.0100495897091581,0.129690710625064,0.132133841301574,15.4760400944244,0.824824668500073,0.620955968802293,0.176624443068222,0.240258762940231,0.0919480849839556,0.381291037563216,0.156918391835306,0.0426467547060718,NaN,NaN,NaN,NaN,2.06469467336038,-124.238920485483,2.02451938664623,stable,stable,1,0.55060093785227,0.198661977511847,0.204446604791674,0.900328073458513,0.359134184451575
88,1.93843367634987,2.76210427284241,-1.08402535590078,-1.58352492478618,1.93843367634987,-0.0542343229908042,0.0135084082295162,0.0558913131279462,-0.0657798861236709,-0.134247695746901,0.153672596597434,0.00991230214719614,0.152844646916984,0.15522093334274,15.447116627306,0.944302783490567,1.01201355123967,0.176069150971015,0.240316897938478,0.193314946891454,0.476468865890487,0.15939881878662,0.0379635576257821,NaN,NaN,NaN,NaN,2.00959748573364,-123.70580417537,2.10269039216578,stable,stable,1,0.547959833695181,0.195572624950944,0.201992424477025,0.896594367598755,0.314082245826021
89,2.62479041576385,3,-0.242726860937136,-2.57884523549379,2.62479041576385,0.00603817556890519,0.00717008208153376,0.0093738808002265,-0.00976665656338585,-0.346328673327421,0.346798192980914,0.022381447624224,0.199274830684582,0.202159887385657,15.4536217584723,1.66985017630522,1.42178117498169,0.0271866292725173,0.0535540220021925,0.107763240251985,0.461268017841053,0.00253879674455949,0.00637551181466804,NaN,NaN,NaN,NaN,3,-94.0907171926139,1.99111208469721,stable,stable,1,0.740376088347493,0.0861407012665075,0.0551311428012042,0.962115296175059,0.352105226554674
90,1.926653467879,2.9243700504303,-1.04939802027612,-1.58629038546137,1.926653467879,-0.0666253178229574,0.0189707966525151,0.0692735454603066,-0.064648259554594,-0.138388199639926,0.158052512985252,0.0101957008625034,0.193787597696118,0.196216407851679,15.4284858640001,1.04872458223101,1.0185998510773,0.176613059137157,0.240307435560015,0.199039021043704,0.387596561732177,0.159532502642343,0.0372227719090816,NaN,NaN,NaN,NaN,1.99637079272466,-122.311062912018,1.91924289759512,stable,stable,1,0.553017539671403,0.237186381075097,0.226750716574251,0.895450207026856,0.311538212869465
91,1.86790480500176,2.65445971488953,-1.12501503095036,-1.47426667814624,1.86790480500176,-0.0501112515798266,0.00921494045574968,0.0509514736047907,-0.0690780424687222,-0.116254297418097,0.138455350577167,0.00892996406477482,0.127625352323944,0.129939475831564,15.4309777537898,0.751881313195552,1.00560835176439,0.177372087145523,0.240256524006758,0.150160423998803,0.487057427190411,0.159527445553766,0.0359743654716064,NaN,NaN,NaN,NaN,1.94546366280019,-126.251978914843,1.50668227715418,stable,stable,1,0.524095843166782,0.186315958218959,0.195772249288381,0.897505109059696,0.33326203377831
92,2.62627906719844,3,-0.468796419563076,-2.55062870278524,2.62627906719844,0.00856101398797833,0.00589848511031545,0.0103963016067722,-0.0205723800349756,-0.338178293484276,0.339493531473197,0.0219148565980966,0.197095647385364,0.199773629305793,15.4314473696246,1.89572552734039,1.50499989525115,0.0324056380167872,0.0520642456044656,0.115697620509167,0.448881360318397,0.0199135359612403,0.00719270106094943,NaN,NaN,NaN,NaN,3,-99.2513675644137,1.68310176032267,stable,stable,1,0.740295810447408,0.0859931985082602,0.0630619071907011,0.957077195528387,0.348578835329259
93,1.67615946215026,2.37773704528809,-1.00758590943991,-1.32564281083228,1.67615946215026,-0.0355384210624526,0.0182613645529862,0.0399556855397231,-0.0546816773961754,-0.0932620199137993,0.110534223064025,0.00712924439692119,0.107235077311395,0.109030775999861,15.4618745899195,0.818996148779537,0.927021241282081,0.177065335214425,0.240211081852625,0.156634846597846,0.394979361283865,0.159965932573774,0.0365972210391396,NaN,NaN,NaN,NaN,1.74681180591764,-126.657123786368,2.2022474005247,stable,stable,1,0.468782011773375,0.165180165221626,0.183512149543633,0.897748624328018,0.33038451262318
94,2.67199159515839,3,-0.278311837397529,-2.6214299434479,2.67199159515839,-0.0310820210816747,-0.0105361548052136,0.0328192411947792,-0.00931381793569024,-0.352535785756931,0.352984675576823,0.0227844869378461,0.2021983881681,0.204327613788358,15.3979448448191,1.72628603465985,1.34293790891109,0.0628421703544247,0.240199198161782,0.114453474316367,0.468366775695208,0.00188908397908641,0.00678038534944386,NaN,NaN,NaN,NaN,3,-94.2734617915732,1.80966798684149,unstable,unstable,0,0.753396614799909,0.0798187519750718,0.0511964387371621,0.944463583837587,0.349131789192726
95,1.79882803133556,2.79599213600159,-1.14233296753299,-1.35924865425581,1.79882803133556,-0.0666837731094434,0.0116284704280592,0.0676900799276229,-0.0741209922007615,-0.101646213022315,0.131811819972439,0.00850268622452956,0.171960953912656,0.174018781110747,15.4001404157862,0.897845537286892,0.968983470420963,0.178202553948831,0.240248929288944,0.123174272385561,0.484695217953332,0.159049247005319,0.0356532443620458,NaN,NaN,NaN,NaN,1.86493072097439,-128.583435678336,2.21865380419277,stable,stable,1,0.514491231244965,0.236771771536587,0.225716433278192,0.896230780822166,0.345255878939751
96,1.72337259610494,2.45621275901794,-1.05920657477362,-1.3452459056318,1.72337259610494,0.00429753554044385,0.000532522627505266,0.00433040322258599,-0.0605688407861718,-0.0956287776133677,0.115709454065563,0.00747394078491897,0.120466423453247,0.121363871657588,15.3605371396742,2.237248871592,2.28866965745256,0.0145791125383627,0.074390137676398,0.145764695135918,0.499295902360125,0.000351837401186899,0.00591103930734053,NaN,NaN,NaN,NaN,1.76269102467469,-127.19753908103,2.49454998321224,stable,stable,1,0.483838799959502,0.1656829439129,0.101715607365078,0.957149655288326,0.335215691050703
97,1.76860246285289,2.38803505897522,-1.08256308157967,-1.37560331882543,1.76860246285289,-0.0480296633326208,0.0232232930518844,0.0533495070269501,-0.0642037308825883,-0.101718204314331,0.124444927946424,0.00802954844750551,0.134201711708677,0.136241421815813,15.3620925062623,1.11208565117107,1.18661710424292,0.177578504233193,0.240249500045446,0.172076095688703,0.50831771006384,0.159489345500904,0.0367362620246977,NaN,NaN,NaN,NaN,1.81622668042125,-127.513201967813,1.70545428019898,stable,stable,1,0.498875607790601,0.149153077082464,0.17373464054169,0.893149511948008,0.323521735249465
98,1.8739208137097,2.72334337234497,-1.19304205883555,-1.41983318815655,1.8739208137097,-0.0593799384456034,0.0180145104779371,0.0620523946158676,-0.0781877723235162,-0.107585086377741,0.138014719058568,0.00890168162835798,0.139186085669917,0.141464756180147,15.4345513498899,0.775378260216152,0.99720136689908,0.176578473088163,0.240228710178882,0.161845519903624,0.485453150629905,0.159556752262222,0.0360486260179743,NaN,NaN,NaN,NaN,1.91962505408224,-128.853168090004,2.11897467628856,stable,stable,1,0.528005168225283,0.202496348039178,0.205520512219313,0.897783352100013,0.328068657820612
99,2.62703169941902,3,-0.15855779458344,-2.59013955562373,2.62703169941902,0.00502007691156367,0.00592588806331283,0.00776642269883169,-0.00593189655494381,-0.348931600879598,0.349215475044183,0.0225439863985784,0.195431186725545,0.198283543226233,15.4156089126917,1.94235384163111,1.53204895894345,0.0296115031399021,0.0607321871282382,0.112143632443233,0.453870811320858,0.00954157790645146,0.00539116956246595,NaN,NaN,NaN,NaN,3,-92.2002194325483,1.8445258056906,stable,stable,1,0.740198495156986,0.0853417117921726,0.057406153662502,0.957895369282677,0.350158385580785
100,1.65729979876758,2.31960558891296,-1.04457580778045,-1.26450997116141,1.65729979876758,-0.0439646753234631,0.0147961990419643,0.0463877158565385,-0.0605433762597753,-0.0869123269057582,0.109940944837125,0.0070946705735549,0.141914209933914,0.143665370754921,15.3676702877912,1.0887284983434,1.27682679454132,0.176766281473244,0.240206216615009,0.157240873458781,0.419463175355544,0.156632235500213,0.0423613660837905,NaN,NaN,NaN,NaN,1.68546986904653,-128.540481584722,1.9449456379025,stable,stable,1,0.470679687155673,0.157523217356409,0.179532390424207,0.893030353390712,0.330115167351653
